SessionID,TreatmentNumber,subjects,Period,Subject,Group,Profit,TotalProfit,Participate,Pair,RoleTrust,InGroup,input_self[1],input_self[2],input_self[3],input_self[4],input_self[5],input_self[6],input_other[1],input_other[2],input_other[3],input_other[4],input_other[5],input_other[6],chosen_option[1],chosen_option[2],chosen_option[3],chosen_option[4],chosen_option[5],chosen_option[6],item_order[1],item_order[2],item_order[3],item_order[4],item_order[5],item_order[6],random_numbers[1],random_numbers[2],random_numbers[3],random_numbers[4],random_numbers[5],random_numbers[6],all_unique,item_rank,svoGroup,Role,raven1,raven2,raven3,raven4,raven5,Q1,Q2,Q3,Q4,Q5,GroupCorrect1,GroupCorrect2,GroupCorrect3,GroupCorrect4,GroupCorrect5,ravenfeedback1,RoleDictator,TrustGame,TrustGameResponder,trustfeedback1,Trio,Allocation,ravenprofit,trustprofit,dictatorprofit,AllocationDummy,TimeOKColorOK,TimeChatGroup1raven1OK,TimeChatGroupraven2OK,TimeChatGroupraven3OK,TimeChatGroupraven4OK,TimeChatGroupraven5OK,checker1,checker2,checker3,counter,fakepropose,fakerespond,TimePracticeTrustOK,TimeAEPracticeTrustOK,TimeTrustGameProposeOK,TimeAETrustGameResponseOK,Other1,Other2,Other1Team,Other2Team,Other1Num,Other2Num,TimeDictatorAllocateOK,random_dict,Dictator_roundpay,Dictator_team,Dictator_num,random_round,DictatorProfit,SelectedTeam,SelectedNum,item_num,self[1],self[2],self[3],self[4],self[5],self[6],self[7],self[8],self[9],other[1],other[2],other[3],other[4],other[5],other[6],other[7],other[8],other[9],option,LeaveStage,TimeSVOItemsOK,TimeKillSVOItemsOK,mean_to_self,mean_to_other,k,svo_angle,svo_type,avg_dist_to_equality,avg_dist_to_altruist,avg_dist_to_joint,avg_dist_to_indiv,j,not_altru_indiv,inequality_aversion_score,payed_slider,svoProfit,kept_of_sender,received_from_sender,TimeSummaryOK,q1,q2,q3,q4,q5,TimeOKCollectivismOK,totalpayoff,ToPay,TimeFinalFeedbackOK,150114_1400,2,subjects,1,1,1,0,0,0,1,1,1,0,0,0,0,0,0,0,0,0,0,0,0,0,0,0,0,0,0,4,3,6,2,1,5,0.327564026,0.215075167,0.949883443,0.130656862,0.067825552,0.38310808,1,1,2,2,1,3,6,2,8,10,0,10,10,0,5,0,5,5,0,-1,1,150,225,-1,2,35,45,225,0,35,27,20,2,54,79,1,1,0,0,5,0,0,99999,99999,19,0,2,3,4,6,2,2,99999,1,30,1,1,5,0,0,0,4,100,109,118,126,135,144,153,161,170,200,179,158,136,115,94,73,51,30,9,0,0,0,0,0,7,45,2,-99,-99,-99,-99,16,0,-99,4,0,0,0,0,-1,-1,-1,-1,-1,0,270,45,0,150114_1400,2,subjects,1,2,1,0,0,0,2,1,2,0,0,0,0,0,0,0,0,0,0,0,0,0,0,0,0,0,0,6,1,2,5,4,3,0.848582772,0.037352401,0.078800429,0.646719628,0.320305439,0.313804049,1,1,2,1,1,6,6,2,5,10,0,10,10,0,5,0,5,5,0,-1,1,5,0,-1,1,40,45,145,0,30,26,18,2,13,3,0,1,0,0,5,0,0,99999,99999,9,0,2,3,2,4,1,1,99999,1,30,1,2,3,0,0,0,6,200,196,193,189,185,181,178,174,170,100,109,118,126,135,144,153,161,170,-,-,-,-,0,0,7,45,2,-99,-99,-99,-99,16,0,-99,4,0,0,0,-,-1,-1,-1,-1,-1,-,190,32,-,150114_1400,2,subjects,1,3,1,0,0,0,3,1,3,0,0,0,0,0,0,0,0,0,0,0,0,0,0,0,0,0,0,5,4,3,6,1,2,0.83832083,0.781801074,0.73064585,0.897501863,0.570300313,0.729964083,1,1,1,2,1,3,6,2,6,10,0,10,10,10,5,0,5,5,0,-1,1,100,50,-1,4,35,55,100,0,35,20,9,5,30,51,2,0,1,1,7,130,10,99999,99999,18,0,2,3,3,6,3,4,99999,1,30,1,3,2,0,0,0,5,200,188,175,163,150,138,125,113,100,100,113,125,138,150,163,175,188,200,-,-,-,-,0,0,7,45,2,-99,-99,-99,-99,16,0,-99,4,0,0,0,-,-1,-1,-1,-1,-1,-,155,26,-,150114_1400,2,subjects,1,4,1,0,0,0,4,1,4,0,0,0,0,0,0,0,0,0,0,0,0,0,0,0,0,0,0,2,5,1,3,4,6,0.16928343,0.691023382,0.029977051,0.39881291,0.416785261,0.865053318,1,1,1,1,1,7,6,2,6,10,0,10,10,10,5,0,5,5,0,-1,1,150,150,-1,6,35,55,150,0,35,22,6,3,89,103,76,0,1,1,4,150,450,99999,99999,25,0,2,3,2,5,3,3,99999,1,30,1,4,1,30,1,4,2,170,174,178,181,185,189,193,196,200,30,39,48,56,65,74,83,91,100,-,-,-,-,0,0,7,45,2,-99,-99,-99,-99,16,0,-99,4,0,0,0,-,-1,-1,-1,-1,-1,-,235,40,-,150114_1400,2,subjects,1,5,2,0,0,0,5,1,1,0,0,0,0,0,0,0,0,0,0,0,0,0,0,0,0,0,0,6,1,5,4,3,2,0.909879215,0.016931653,0.810206641,0.4771327,0.461656125,0.054493072,1,1,4,2,1,4,6,2,6,10,10,10,10,10,5,5,0,5,5,-1,2,50,50,-1,1,35,70,150,0,35,27,86,88,47,37,30,0,1,1,4,150,225,99999,99999,-7,0,3,1,4,1,1,2,99999,1,40,1,2,2,0,0,0,6,200,196,193,189,185,181,178,174,170,100,109,118,126,135,144,153,161,170,-,-,-,-,0,0,7,45,2,-99,-99,-99,-99,16,0,-99,1,0,0,0,-,-1,-1,-1,-1,-1,-,220,37,-,150114_1400,2,subjects,1,6,2,0,0,0,6,1,2,0,0,0,0,0,0,0,0,0,0,0,0,0,0,0,0,0,0,1,4,6,3,2,5,0.339974662,0.658194784,0.915589951,0.613136577,0.37351877,0.824289835,1,1,4,1,1,4,6,2,6,10,10,10,10,10,5,5,0,5,5,-1,1,30,30,-1,5,50,70,150,0,20,26,75,33,64,31,2,1,0,0,4,0,0,99999,99999,15,0,2,3,5,6,2,1,99999,1,30,2,2,5,0,0,0,1,170,170,170,170,170,170,170,170,170,170,153,135,118,100,83,65,48,30,-,-,-,-,0,0,7,45,2,-99,-99,-99,-99,16,0,-99,1,0,0,0,-,-1,-1,-1,-1,-1,-,220,37,-,150114_1400,2,subjects,1,7,2,0,0,0,7,1,3,0,0,0,0,0,0,0,0,0,0,0,0,0,0,0,0,0,0,4,5,1,6,3,2,0.279733274,0.48248839,0.061508985,0.796910495,0.195279438,0.104646926,1,1,3,2,1,4,0,2,6,10,10,0,10,10,5,5,0,5,5,-1,2,30,45,-1,6,35,60,165,0,35,21,38,7,0,0,1,0,1,1,5,34,43,99999,99999,5,0,3,1,5,1,3,4,99999,1,35,1,4,3,0,0,0,4,100,109,118,126,135,144,153,161,170,200,179,158,136,115,94,73,51,30,-,-,-,-,0,0,7,45,2,-99,-99,-99,-99,16,0,-99,1,0,0,0,-,-1,-1,-1,-1,-1,-,225,38,-,150114_1400,2,subjects,1,8,2,0,0,0,8,1,4,0,0,0,0,0,0,0,0,0,0,0,0,0,0,0,0,0,0,5,4,1,2,6,3,0.944054274,0.800890809,0.135508595,0.571824045,0.957551546,0.727217579,1,1,3,1,1,4,6,2,6,10,10,10,10,10,5,5,0,5,5,-1,1,150,225,-1,8,35,70,225,0,35,25,58,45,88,61,32,0,1,1,4,150,150,99999,99999,19,0,2,3,4,4,3,4,99999,1,30,2,4,4,0,0,0,5,200,188,175,163,150,138,125,113,100,100,113,125,138,150,163,175,188,200,-,-,-,-,0,0,7,45,2,-99,-99,-99,-99,16,0,-99,1,0,0,0,-,-1,-1,-1,-1,-1,-,295,50,-,150114_1400,2,subjects,1,9,3,0,0,0,9,1,1,0,0,0,0,0,0,0,0,0,0,0,0,0,0,0,0,0,0,3,4,6,2,5,1,0.568839926,0.867766621,0.983674251,0.567334963,0.905097488,0.146603055,1,1,6,2,1,7,6,2,3,10,0,10,10,0,0,0,5,5,0,-1,1,150,225,-1,7,35,40,225,0,35,14,3,19,74,0,18,0,1,1,4,150,225,99999,99999,24,0,2,3,3,5,2,1,99999,1,30,3,1,3,0,0,0,3,100,109,118,126,135,144,153,161,170,200,196,193,189,185,181,178,174,170,-,-,-,-,0,0,7,45,2,-99,-99,-99,-99,16,0,-99,4,0,0,0,-,-1,-1,-1,-1,-1,-,265,45,-,150114_1400,2,subjects,1,10,3,0,0,0,10,1,2,0,0,0,0,0,0,0,0,0,0,0,0,0,0,0,0,0,0,6,2,4,3,5,1,0.742896874,0.339555251,0.674688407,0.4880576,0.731398892,0.024351366,1,1,6,1,1,7,6,2,6,10,0,10,10,10,0,0,5,5,0,-1,2,150,225,-1,7,35,50,225,0,35,27,75,3,41,21,12,1,0,0,4,0,0,99999,99999,24,0,3,1,5,3,1,1,99999,1,35,3,1,3,0,0,0,6,200,196,193,189,185,181,178,174,170,100,109,118,126,135,144,153,161,170,-,-,-,-,0,0,7,45,2,-99,-99,-99,-99,16,0,-99,4,0,0,0,-,-1,-1,-1,-1,-1,-,275,46,-,150114_1400,2,subjects,1,11,3,0,0,0,11,1,3,0,0,0,0,0,0,0,0,0,0,0,0,0,0,0,0,0,0,6,2,1,4,3,5,0.986445843,0.236726208,0.182375486,0.492629663,0.371323941,0.668203397,1,1,5,2,1,7,6,2,6,10,0,10,10,10,0,0,5,5,0,-1,2,1,0,-1,4,35,50,149,0,35,25,58,85,99,3,59,1,0,0,4,0,0,99999,99999,16,0,3,1,6,1,4,3,99999,1,35,1,3,4,0,0,0,6,200,196,193,189,185,181,178,174,170,100,109,118,126,135,144,153,161,170,-,-,-,-,0,0,7,45,2,-99,-99,-99,-99,16,0,-99,4,0,0,0,-,-1,-1,-1,-1,-1,-,199,34,-,150114_1400,2,subjects,1,12,3,0,0,0,12,1,4,0,0,0,0,0,0,0,0,0,0,0,0,0,0,0,0,0,0,2,1,6,4,3,5,0.270742627,0.091315012,0.954151752,0.553599069,0.506341886,0.839256447,1,1,5,1,0,7,6,2,8,0,0,10,10,0,0,0,5,5,0,-1,1,150,225,-1,3,35,30,225,0,35,0,0,7,75,4,63,0,1,1,4,80,100,99999,99999,2,0,2,3,5,6,4,3,99999,1,30,3,4,2,0,0,0,2,170,174,178,181,185,189,193,196,200,30,39,48,56,65,74,83,91,100,-,-,-,-,0,0,7,45,2,-99,-99,-99,-99,16,0,-99,4,0,0,0,-,-1,-1,-1,-1,-1,-,255,43,-,150114_1400,2,subjects,1,13,4,0,0,0,1,2,1,0,0,0,0,0,0,0,0,0,0,0,0,0,0,0,0,0,0,2,4,6,5,3,1,0.494501774,0.613541137,0.981892557,0.942270156,0.514032864,0.192000118,1,1,8,2,1,3,6,2,6,10,0,10,10,10,5,0,5,5,5,-1,3,150,225,-1,1,35,60,225,0,35,25,92,17,39,73,17,1,0,0,4,150,0,99999,99999,22,21,1,2,1,2,2,1,99999,1,30,1,2,5,0,0,0,2,170,174,178,181,185,189,193,196,200,30,39,48,56,65,74,83,91,100,-,-,-,-,0,0,7,45,2,-99,-99,-99,-99,16,0,-99,2,0,0,0,-,-1,-1,-1,-1,-1,-,285,48,-,150114_1400,2,subjects,1,14,4,0,0,0,2,2,2,0,0,0,0,0,0,0,0,0,0,0,0,0,0,0,0,0,0,6,2,5,1,4,3,0.492957805,0.189133724,0.386794524,0.143013422,0.317190715,0.273414098,1,1,8,1,1,7,6,2,6,10,0,10,10,10,5,0,5,5,5,-1,2,5,0,-1,2,35,60,15,0,35,26,11,7,88,59,16,1,0,0,5,0,0,99999,99999,24,21,3,1,6,1,2,1,99999,1,35,1,1,1,35,1,1,6,200,196,193,189,185,181,178,174,170,100,109,118,126,135,144,153,161,170,-,-,-,-,0,0,7,45,2,-99,-99,-99,-99,16,0,-99,2,0,0,0,-,-1,-1,-1,-1,-1,-,110,19,-,150114_1400,2,subjects,1,15,4,0,0,0,3,2,3,0,0,0,0,0,0,0,0,0,0,0,0,0,0,0,0,0,0,2,1,3,5,6,4,0.386957519,0.33062436,0.495409238,0.855572388,0.973477523,0.730395879,1,1,7,2,1,7,6,2,6,10,0,10,10,10,5,0,5,5,5,-1,2,100,50,-1,8,35,60,250,0,35,24,33,2,17,4,4,0,1,1,4,30,5,99999,99999,24,-4,3,1,4,2,4,4,99999,1,35,2,4,5,0,0,0,2,170,174,178,181,185,189,193,196,200,30,39,48,56,65,74,83,91,100,-,-,-,-,0,0,7,45,2,-99,-99,-99,-99,16,0,-99,2,0,0,0,-,-1,-1,-1,-1,-1,-,310,52,-,150114_1400,2,subjects,1,16,4,0,0,0,4,2,4,0,0,0,0,0,0,0,0,0,0,0,0,0,0,0,0,0,0,4,5,3,6,1,2,0.841476097,0.945986145,0.763538442,0.964796071,0.123920654,0.141829429,1,1,7,1,1,3,6,2,6,10,0,10,10,10,5,0,5,5,5,-1,3,150,150,-1,8,35,60,300,0,35,7,6,4,18,13,29,0,1,1,4,20,10,99999,99999,16,-12,1,2,2,4,4,3,99999,1,35,2,4,5,0,0,0,4,100,109,118,126,135,144,153,161,170,200,179,158,136,115,94,73,51,30,-,-,-,-,0,0,7,45,2,-99,-99,-99,-99,16,0,-99,2,0,0,0,-,-1,-1,-1,-1,-1,-,360,60,-,150114_1400,2,subjects,1,17,5,0,0,0,5,2,1,0,0,0,0,0,0,0,0,0,0,0,0,0,0,0,0,0,0,5,3,4,6,1,2,0.803623217,0.345852496,0.785885886,0.857877461,0.105606094,0.266451886,1,1,10,2,1,6,6,2,6,10,0,10,10,10,5,0,5,5,5,-1,3,50,50,-1,7,35,60,100,0,35,27,71,4,79,109,48,0,1,1,4,75,100,99999,99999,17,17,1,2,3,3,1,2,99999,1,35,3,1,5,0,0,0,5,200,188,175,163,150,138,125,113,100,100,113,125,138,150,163,175,188,200,-,-,-,-,0,0,7,45,2,-99,-99,-99,-99,16,0,-99,3,0,0,0,-,-1,-1,-1,-1,-1,-,160,27,-,150114_1400,2,subjects,1,18,5,0,0,0,6,2,2,0,0,0,0,0,0,0,0,0,0,0,0,0,0,0,0,0,0,2,1,4,6,5,3,0.343061675,0.071279895,0.595020767,0.770496245,0.734431852,0.581690186,1,1,10,1,1,7,6,2,6,10,0,10,10,10,5,0,5,5,5,-1,2,30,30,-1,5,35,60,60,0,35,26,60,12,84,1,14,0,1,1,4,65,65,99999,99999,23,15,3,1,6,2,1,2,99999,1,50,2,2,2,0,0,0,2,170,174,178,181,185,189,193,196,200,30,39,48,56,65,74,83,91,100,-,-,-,-,0,0,7,45,2,-99,-99,-99,-99,16,0,-99,3,0,0,0,-,-1,-1,-1,-1,-1,-,120,20,-,150114_1400,2,subjects,1,19,5,0,0,0,7,2,3,0,0,0,0,0,0,0,0,0,0,0,0,0,0,0,0,0,0,4,2,6,3,5,1,0.657373972,0.384089187,0.837571921,0.466955669,0.781507521,0.324938576,1,1,9,2,1,7,6,2,6,10,0,10,10,10,5,0,5,5,5,-1,3,30,45,-1,6,70,60,45,0,0,27,49,4,102,5,8,0,1,1,4,100,100,99999,99999,19,16,1,2,1,2,4,3,99999,1,35,1,4,5,0,0,0,4,100,109,118,126,135,144,153,161,170,200,179,158,136,115,94,73,51,30,-,-,-,-,0,0,7,45,2,-99,-99,-99,-99,16,0,-99,3,0,0,0,-,-1,-1,-1,-1,-1,-,105,18,-,150114_1400,2,subjects,1,20,5,0,0,0,8,2,4,0,0,0,0,0,0,0,0,0,0,0,0,0,0,0,0,0,0,1,6,5,2,4,3,0.019569719,0.688757201,0.626751366,0.42850231,0.62658319,0.485932631,1,1,9,1,1,7,6,2,6,10,0,10,10,10,5,0,5,5,5,-1,2,150,225,-1,3,35,60,225,0,35,27,13,2,109,30,11,0,1,1,4,40,1,99999,99999,14,26,3,1,6,3,3,4,99999,1,35,3,4,2,0,0,0,1,170,170,170,170,170,170,170,170,170,170,153,135,118,100,83,65,48,30,-,-,-,-,0,0,7,45,2,-99,-99,-99,-99,16,0,-99,3,0,0,0,-,-1,-1,-1,-1,-1,-,285,48,-,150114_1400,2,subjects,1,21,6,0,0,0,9,2,1,0,0,0,0,0,0,0,0,0,0,0,0,0,0,0,0,0,0,1,6,5,4,3,2,0.001196264,0.695630379,0.459777827,0.356540232,0.346482117,0.277444681,1,1,12,2,1,2,6,2,6,10,0,10,10,10,5,0,5,5,5,-1,3,150,225,-1,5,30,60,225,0,40,28,91,3,100,85,25,1,0,0,4,0,0,99999,99999,25,19,1,2,2,5,2,2,99999,1,20,2,2,2,0,0,0,1,170,170,170,170,170,170,170,170,170,170,153,135,118,100,83,65,48,30,-,-,-,-,0,0,7,45,2,-99,-99,-99,-99,16,0,-99,1,0,0,0,-,-1,-1,-1,-1,-1,-,285,48,-,150114_1400,2,subjects,1,22,6,0,0,0,10,2,2,0,0,0,0,0,0,0,0,0,0,0,0,0,0,0,0,0,0,3,6,5,4,2,1,0.641579078,0.989436261,0.921614904,0.784076985,0.371681434,0.012758305,1,1,12,1,1,1,6,2,6,10,0,10,10,10,5,0,5,5,5,-1,3,150,225,-1,2,35,60,225,0,35,19,23,0,12,0,2,0,1,1,4,75,75,99999,99999,2,18,1,2,1,4,1,2,99999,1,35,1,1,2,0,0,0,3,100,109,118,126,135,144,153,161,170,200,196,193,189,185,181,178,174,170,-,-,-,-,0,0,7,45,2,-99,-99,-99,-99,16,0,-99,1,0,0,0,-,-1,-1,-1,-1,-1,-,285,48,-,150114_1400,2,subjects,1,23,6,0,0,0,11,2,3,0,0,0,0,0,0,0,0,0,0,0,0,0,0,0,0,0,0,2,5,3,6,1,4,0.294740881,0.76833953,0.319916343,0.849865867,0.242652784,0.734503548,1,1,11,2,1,1,6,2,6,10,0,10,10,10,5,0,5,5,5,-1,3,1,0,-1,3,35,60,3,0,35,17,59,2,74,90,6,1,0,0,4,150,0,99999,99999,24,16,1,2,3,5,4,4,99999,1,35,3,4,4,0,0,0,2,170,174,178,181,185,189,193,196,200,30,39,48,56,65,74,83,91,100,-,-,-,-,0,0,7,45,2,-99,-99,-99,-99,16,0,-99,1,0,0,0,-,-1,-1,-1,-1,-1,-,63,11,-,150114_1400,2,subjects,1,24,6,0,0,0,12,2,4,0,0,0,0,0,0,0,0,0,0,0,0,0,0,0,0,0,0,6,3,5,1,2,4,0.83396897,0.346186502,0.745772788,0.125088465,0.256848806,0.428829388,1,1,11,1,1,7,6,2,6,10,0,10,10,10,5,0,5,5,5,-1,3,150,225,-1,4,35,60,225,0,35,20,95,1,22,4,25,1,0,0,4,0,0,99999,99999,5,15,1,2,1,3,3,3,99999,1,35,1,3,4,0,0,0,6,200,196,193,189,185,181,178,174,170,100,109,118,126,135,144,153,161,170,-,-,-,-,0,0,7,45,2,-99,-99,-99,-99,16,0,-99,1,0,0,0,-,-1,-1,-1,-1,-1,-,285,48,-,150114_1400,2,subjects,2,1,1,0,0,0,1,1,1,0,0,0,0,0,0,0,0,0,0,0,0,0,0,0,0,0,0,4,6,3,1,2,5,0.350341643,0.970198108,0.275263469,0.011163675,0.203243161,0.361816399,1,1,2,2,1,3,6,2,8,10,0,10,10,0,5,0,5,5,0,-1,1,0,0,-1,7,35,45,225,0,35,-,-,-,-,-,-,1,0,0,0,0,0,-,-,-,-,2,3,5,5,1,3,99999,3,0,5,3,1,30,1,1,4,100,109,118,126,135,144,153,161,170,200,179,158,136,115,94,73,51,30,-,-,-,-,0,0,7,45,2,-99,-99,-99,-99,16,0,-99,1,0,0,0,-,-1,-1,-1,-1,-1,-,300,50,-,150114_1400,2,subjects,2,2,1,0,0,0,2,1,2,0,0,0,0,0,0,0,0,0,0,0,0,0,0,0,0,0,0,6,3,4,2,5,1,0.809226732,0.49175376,0.647795071,0.335531293,0.809162803,0.059040157,1,1,2,1,1,6,6,2,5,10,0,10,10,0,5,0,5,5,0,-1,1,0,0,-1,4,35,45,145,0,35,-,-,-,-,-,-,1,0,0,0,0,0,-,-,-,-,2,3,4,5,4,2,99999,3,35,5,2,3,0,0,0,6,200,196,193,189,185,181,178,174,170,100,109,118,126,135,144,153,161,170,-,-,-,-,0,0,7,45,2,-99,-99,-99,-99,16,0,-99,1,0,0,0,-,-1,-1,-1,-1,-1,-,190,32,-,150114_1400,2,subjects,2,3,1,0,0,0,3,1,3,0,0,0,0,0,0,0,0,0,0,0,0,0,0,0,0,0,0,3,6,5,2,1,4,0.442260081,0.905432515,0.780070673,0.430509365,0.153203673,0.622113051,1,1,1,2,1,3,6,2,6,10,0,10,10,10,5,0,5,5,0,-1,1,0,0,-1,5,35,55,100,0,35,-,-,-,-,-,-,1,0,0,0,0,0,-,-,-,-,2,3,2,4,1,3,99999,3,50,4,3,3,0,0,0,3,100,109,118,126,135,144,153,161,170,200,196,193,189,185,181,178,174,170,-,-,-,-,0,0,7,45,2,-99,-99,-99,-99,16,0,-99,1,0,0,0,-,-1,-1,-1,-1,-1,-,155,26,-,150114_1400,2,subjects,2,4,1,0,0,0,4,1,4,0,0,0,0,0,0,0,0,0,0,0,0,0,0,0,0,0,0,4,5,6,2,3,1,0.232236765,0.250715777,0.660557576,0.07029069,0.231291393,0.03540262,1,1,1,1,1,7,6,2,6,10,0,10,10,10,5,0,5,5,0,-1,1,0,0,-1,3,35,55,150,0,35,-,-,-,-,-,-,1,0,0,0,0,0,-,-,-,-,2,3,3,4,4,2,99999,3,35,4,2,1,30,1,4,4,100,109,118,126,135,144,153,161,170,200,179,158,136,115,94,73,51,30,-,-,-,-,0,0,7,45,2,-99,-99,-99,-99,16,0,-99,1,0,0,0,-,-1,-1,-1,-1,-1,-,235,40,-,150114_1400,2,subjects,2,5,2,0,0,0,5,1,1,0,0,0,0,0,0,0,0,0,0,0,0,0,0,0,0,0,0,4,2,3,5,1,6,0.493316744,0.287913425,0.39444052,0.905444705,0.027385154,0.991176999,1,1,4,2,1,4,6,2,6,10,10,10,10,10,5,5,0,5,5,-1,2,0,0,-1,5,35,70,150,0,35,-,-,-,-,-,-,1,0,0,0,0,0,-,-,-,-,3,1,4,1,3,3,99999,3,20,4,3,2,20,4,3,4,100,109,118,126,135,144,153,161,170,200,179,158,136,115,94,73,51,30,-,-,-,-,0,0,7,45,2,-99,-99,-99,-99,16,0,-99,1,0,0,0,-,-1,-1,-1,-1,-1,-,240,40,-,150114_1400,2,subjects,2,6,2,0,0,0,6,1,2,0,0,0,0,0,0,0,0,0,0,0,0,0,0,0,0,0,0,4,5,1,3,2,6,0.673687187,0.832542471,0.039245585,0.415176442,0.144335448,0.845872482,1,1,4,1,1,4,6,2,6,10,10,10,10,10,5,5,0,5,5,-1,1,0,0,-1,8,35,70,150,0,35,-,-,-,-,-,-,1,0,0,0,0,0,-,-,-,-,2,3,2,6,4,4,99999,3,35,6,4,5,0,0,0,4,100,109,118,126,135,144,153,161,170,200,179,158,136,115,94,73,51,30,-,-,-,-,0,0,7,45,2,-99,-99,-99,-99,16,0,-99,1,0,0,0,-,-1,-1,-1,-1,-1,-,220,37,-,150114_1400,2,subjects,2,7,2,0,0,0,7,1,3,0,0,0,0,0,0,0,0,0,0,0,0,0,0,0,0,0,0,6,5,1,4,2,3,0.714302092,0.70997875,0.515796552,0.612249571,0.578808556,0.599228431,1,1,3,2,1,4,0,2,6,10,10,0,10,10,5,5,0,5,5,-1,1,0,0,-1,2,43,60,165,0,27,-,-,-,-,-,-,1,0,0,0,0,0,-,-,-,-,2,3,3,6,1,3,99999,3,30,6,3,5,0,0,0,6,200,196,193,189,185,181,178,174,170,100,109,118,126,135,144,153,161,170,-,-,-,-,0,0,7,45,2,-99,-99,-99,-99,16,0,-99,1,0,0,0,-,-1,-1,-1,-1,-1,-,225,38,-,150114_1400,2,subjects,2,8,2,0,0,0,8,1,4,0,0,0,0,0,0,0,0,0,0,0,0,0,0,0,0,0,0,1,3,2,4,5,6,0.058957255,0.185905242,0.078542886,0.541310837,0.627881789,0.960942277,1,1,3,1,1,4,6,2,6,10,10,10,10,10,5,5,0,5,5,-1,2,0,0,-1,8,35,70,225,0,35,-,-,-,-,-,-,1,0,0,0,0,0,-,-,-,-,3,1,6,2,4,2,99999,3,35,6,4,5,0,0,0,1,170,170,170,170,170,170,170,170,170,170,153,135,118,100,83,65,48,30,-,-,-,-,0,0,7,45,2,-99,-99,-99,-99,16,0,-99,1,0,0,0,-,-1,-1,-1,-1,-1,-,295,50,-,150114_1400,2,subjects,2,9,3,0,0,0,9,1,1,0,0,0,0,0,0,0,0,0,0,0,0,0,0,0,0,0,0,6,2,4,5,1,3,0.596136518,0.420056937,0.509409443,0.512290055,0.087455114,0.474807493,1,1,6,2,1,7,6,2,3,10,0,10,10,0,0,0,5,5,0,-1,2,0,0,-1,2,40,40,225,0,30,-,-,-,-,-,-,1,0,0,0,0,0,-,-,-,-,3,1,6,2,3,3,99999,3,40,6,3,5,0,0,0,6,200,196,193,189,185,181,178,174,170,100,109,118,126,135,144,153,161,170,-,-,-,-,0,0,7,45,2,-99,-99,-99,-99,16,0,-99,6,0,0,0,-,-1,-1,-1,-1,-1,-,265,45,-,150114_1400,2,subjects,2,10,3,0,0,0,10,1,2,0,0,0,0,0,0,0,0,0,0,0,0,0,0,0,0,0,0,5,1,2,6,3,4,0.870454318,0.192569512,0.711825049,0.992652602,0.718880442,0.851745311,1,1,6,1,1,7,6,2,6,10,0,10,10,10,0,0,5,5,0,-1,1,0,0,-1,6,35,50,225,0,35,-,-,-,-,-,-,1,0,0,0,0,0,-,-,-,-,2,3,5,6,4,2,99999,3,35,6,2,5,0,0,0,5,200,188,175,163,150,138,125,113,100,100,113,125,138,150,163,175,188,200,-,-,-,-,0,0,7,45,2,-99,-99,-99,-99,16,0,-99,6,0,0,0,-,-1,-1,-1,-1,-1,-,275,46,-,150114_1400,2,subjects,2,11,3,0,0,0,11,1,3,0,0,0,0,0,0,0,0,0,0,0,0,0,0,0,0,0,0,5,6,2,4,1,3,0.819885495,0.941583025,0.65560091,0.721405105,0.620839348,0.684500762,1,1,5,2,1,7,6,2,6,10,0,10,10,10,0,0,5,5,0,-1,1,0,0,-1,1,35,50,149,0,35,-,-,-,-,-,-,1,0,0,0,0,0,-,-,-,-,2,3,4,6,1,1,99999,3,40,6,1,3,0,0,0,5,200,188,175,163,150,138,125,113,100,100,113,125,138,150,163,175,188,200,-,-,-,-,0,0,7,45,2,-99,-99,-99,-99,16,0,-99,6,0,0,0,-,-1,-1,-1,-1,-1,-,199,34,-,150114_1400,2,subjects,2,12,3,0,0,0,12,1,4,0,0,0,0,0,0,0,0,0,0,0,0,0,0,0,0,0,0,2,5,6,1,3,4,0.223593835,0.811234318,0.895430078,0.12526827,0.644504824,0.796129284,1,1,5,1,0,7,6,2,8,0,0,10,10,0,0,0,5,5,0,-1,2,0,0,-1,3,35,30,225,0,35,-,-,-,-,-,-,1,0,0,0,0,0,-,-,-,-,3,1,4,1,2,4,99999,3,35,4,2,3,0,0,0,2,170,174,178,181,185,189,193,196,200,30,39,48,56,65,74,83,91,100,-,-,-,-,0,0,7,45,2,-99,-99,-99,-99,16,0,-99,6,0,0,0,-,-1,-1,-1,-1,-1,-,255,43,-,150114_1400,2,subjects,2,13,4,0,0,0,1,2,1,0,0,0,0,0,0,0,0,0,0,0,0,0,0,0,0,0,0,1,2,5,4,6,3,0.105565721,0.20330881,0.815515052,0.514721521,0.858099734,0.446927752,1,1,8,2,1,3,6,2,6,10,0,10,10,10,5,0,5,5,5,-1,2,0,0,-1,1,35,60,225,0,35,-,-,-,-,-,-,1,0,0,0,0,0,-,-,-,-,3,1,6,3,1,3,99999,3,30,6,1,4,0,0,0,1,170,170,170,170,170,170,170,170,170,170,153,135,118,100,83,65,48,30,-,-,-,-,0,0,7,45,2,-99,-99,-99,-99,16,0,-99,3,0,0,0,-,-1,-1,-1,-1,-1,-,285,48,-,150114_1400,2,subjects,2,14,4,0,0,0,2,2,2,0,0,0,0,0,0,0,0,0,0,0,0,0,0,0,0,0,0,1,5,4,3,2,6,0.17451225,0.871093878,0.859491426,0.843194493,0.49822609,0.994277378,1,1,8,1,1,7,6,2,6,10,0,10,10,10,5,0,5,5,5,-1,3,0,0,-1,3,35,60,15,0,35,-,-,-,-,-,-,1,0,0,0,0,0,-,-,-,-,1,2,1,3,4,4,99999,3,30,4,2,2,30,4,2,1,170,170,170,170,170,170,170,170,170,170,153,135,118,100,83,65,48,30,-,-,-,-,0,0,7,45,2,-99,-99,-99,-99,16,0,-99,3,0,0,0,-,-1,-1,-1,-1,-1,-,105,18,-,150114_1400,2,subjects,2,15,4,0,0,0,3,2,3,0,0,0,0,0,0,0,0,0,0,0,0,0,0,0,0,0,0,3,5,4,6,2,1,0.370061334,0.643604393,0.485521359,0.895811359,0.243068689,0.091872765,1,1,7,2,1,7,6,2,6,10,0,10,10,10,5,0,5,5,5,-1,3,0,0,-1,5,50,60,250,0,20,-,-,-,-,-,-,1,0,0,0,0,0,-,-,-,-,1,2,1,2,3,1,99999,3,30,4,3,5,0,0,0,3,100,109,118,126,135,144,153,161,170,200,196,193,189,185,181,178,174,170,-,-,-,-,0,0,7,45,2,-99,-99,-99,-99,16,0,-99,3,0,0,0,-,-1,-1,-1,-1,-1,-,310,52,-,150114_1400,2,subjects,2,16,4,0,0,0,4,2,4,0,0,0,0,0,0,0,0,0,0,0,0,0,0,0,0,0,0,1,3,6,2,5,4,0.082227303,0.475341896,0.697048521,0.361478554,0.657754934,0.582560354,1,1,7,1,1,3,6,2,6,10,0,10,10,10,5,0,5,5,5,-1,2,0,0,-1,4,35,60,300,0,35,-,-,-,-,-,-,1,0,0,0,0,0,-,-,-,-,3,1,5,1,2,2,99999,3,35,5,2,3,0,0,0,1,170,170,170,170,170,170,170,170,170,170,153,135,118,100,83,65,48,30,-,-,-,-,0,0,7,45,2,-99,-99,-99,-99,16,0,-99,3,0,0,0,-,-1,-1,-1,-1,-1,-,360,60,-,150114_1400,2,subjects,2,17,5,0,0,0,5,2,1,0,0,0,0,0,0,0,0,0,0,0,0,0,0,0,0,0,0,6,3,5,4,2,1,0.894592733,0.294492345,0.725727592,0.544873935,0.089529446,0.071250815,1,1,10,2,1,6,6,2,6,10,0,10,10,10,5,0,5,5,5,-1,2,0,0,-1,7,50,60,100,0,20,-,-,-,-,-,-,1,0,0,0,0,0,-,-,-,-,3,1,5,1,3,1,99999,3,70,5,3,2,70,5,3,6,200,196,193,189,185,181,178,174,170,100,109,118,126,135,144,153,161,170,-,-,-,-,0,0,7,45,2,-99,-99,-99,-99,16,0,-99,2,0,0,0,-,-1,-1,-1,-1,-1,-,230,39,-,150114_1400,2,subjects,2,18,5,0,0,0,6,2,2,0,0,0,0,0,0,0,0,0,0,0,0,0,0,0,0,0,0,3,4,5,2,1,6,0.620190197,0.696232675,0.702274341,0.370039205,0.124849146,0.814948217,1,1,10,1,1,7,6,2,6,10,0,10,10,10,5,0,5,5,5,-1,3,0,0,-1,4,35,60,60,0,35,-,-,-,-,-,-,1,0,0,0,0,0,-,-,-,-,1,2,1,4,2,4,99999,3,30,5,2,2,30,5,2,3,100,109,118,126,135,144,153,161,170,200,196,193,189,185,181,178,174,170,-,-,-,-,0,0,7,45,2,-99,-99,-99,-99,16,0,-99,2,0,0,0,-,-1,-1,-1,-1,-1,-,150,25,-,150114_1400,2,subjects,2,19,5,0,0,0,7,2,3,0,0,0,0,0,0,0,0,0,0,0,0,0,0,0,0,0,0,1,4,6,2,5,3,0.239596347,0.532841991,0.885203795,0.341693651,0.55684509,0.385380438,1,1,9,2,1,7,6,2,6,10,0,10,10,10,5,0,5,5,5,-1,3,0,0,-1,7,0,60,45,0,70,-,-,-,-,-,-,1,0,0,0,0,0,-,-,-,-,1,2,1,5,1,1,99999,3,30,5,3,4,0,0,0,1,170,170,170,170,170,170,170,170,170,170,153,135,118,100,83,65,48,30,-,-,-,-,0,0,7,45,2,-99,-99,-99,-99,16,0,-99,2,0,0,0,-,-1,-1,-1,-1,-1,-,105,18,-,150114_1400,2,subjects,2,20,5,0,0,0,8,2,4,0,0,0,0,0,0,0,0,0,0,0,0,0,0,0,0,0,0,2,6,4,5,3,1,0.303630944,0.845193874,0.569836354,0.685746516,0.339601698,0.252350055,1,1,9,1,1,7,6,2,6,10,0,10,10,10,5,0,5,5,5,-1,2,0,0,-1,6,35,60,225,0,35,-,-,-,-,-,-,1,0,0,0,0,0,-,-,-,-,3,1,6,3,2,2,99999,3,35,6,2,2,35,6,2,2,170,174,178,181,185,189,193,196,200,30,39,48,56,65,74,83,91,100,-,-,-,-,0,0,7,45,2,-99,-99,-99,-99,16,0,-99,2,0,0,0,-,-1,-1,-1,-1,-1,-,320,54,-,150114_1400,2,subjects,2,21,6,0,0,0,9,2,1,0,0,0,0,0,0,0,0,0,0,0,0,0,0,0,0,0,0,1,4,5,2,6,3,0.011830341,0.38381144,0.564457717,0.181308753,0.694820206,0.248922455,1,1,12,2,1,2,6,2,6,10,0,10,10,10,5,0,5,5,5,-1,3,0,0,-1,1,40,60,225,0,30,-,-,-,-,-,-,1,0,0,0,0,0,-,-,-,-,1,2,3,4,3,1,99999,3,30,6,1,3,0,0,0,1,170,170,170,170,170,170,170,170,170,170,153,135,118,100,83,65,48,30,-,-,-,-,0,0,7,45,2,-99,-99,-99,-99,16,0,-99,3,0,0,0,-,-1,-1,-1,-1,-1,-,285,48,-,150114_1400,2,subjects,2,22,6,0,0,0,10,2,2,0,0,0,0,0,0,0,0,0,0,0,0,0,0,0,0,0,0,3,1,6,2,5,4,0.16424022,0.062434928,0.896940031,0.089025546,0.536640296,0.247371004,1,1,12,1,1,1,6,2,6,10,0,10,10,10,5,0,5,5,5,-1,3,0,0,-1,6,35,60,225,0,35,-,-,-,-,-,-,1,0,0,0,0,0,-,-,-,-,1,2,3,5,2,4,99999,3,30,6,2,2,30,6,2,3,100,109,118,126,135,144,153,161,170,200,196,193,189,185,181,178,174,170,-,-,-,-,0,0,7,45,2,-99,-99,-99,-99,16,0,-99,3,0,0,0,-,-1,-1,-1,-1,-1,-,315,53,-,150114_1400,2,subjects,2,23,6,0,0,0,11,2,3,0,0,0,0,0,0,0,0,0,0,0,0,0,0,0,0,0,0,4,2,3,6,1,5,0.717130409,0.343827996,0.6396974,0.887171836,0.199007501,0.834681872,1,1,11,2,1,1,6,2,6,10,0,10,10,10,5,0,5,5,5,-1,3,0,0,-1,2,30,60,3,0,40,-,-,-,-,-,-,1,0,0,0,0,0,-,-,-,-,1,2,2,3,3,1,99999,3,30,6,3,1,35,3,4,4,100,109,118,126,135,144,153,161,170,200,179,158,136,115,94,73,51,30,-,-,-,-,0,0,7,45,2,-99,-99,-99,-99,16,0,-99,3,0,0,0,-,-1,-1,-1,-1,-1,-,98,17,-,150114_1400,2,subjects,2,24,6,0,0,0,12,2,4,0,0,0,0,0,0,0,0,0,0,0,0,0,0,0,0,0,0,4,3,6,1,5,2,0.41168348,0.404301033,0.860389383,0.070041132,0.719069089,0.173432808,1,1,11,1,1,7,6,2,6,10,0,10,10,10,5,0,5,5,5,-1,3,0,0,-1,8,35,60,225,0,35,-,-,-,-,-,-,1,0,0,0,0,0,-,-,-,-,1,2,2,2,2,4,99999,3,30,6,4,2,30,6,4,4,100,109,118,126,135,144,153,161,170,200,179,158,136,115,94,73,51,30,-,-,-,-,0,0,7,45,2,-99,-99,-99,-99,16,0,-99,3,0,0,0,-,-1,-1,-1,-1,-1,-,315,53,-,150114_1400,2,subjects,3,1,1,0,0,0,1,1,1,0,0,0,0,0,0,0,0,0,0,0,0,0,0,0,0,0,0,4,6,5,3,1,2,0.808345355,0.999232812,0.865715845,0.722217115,0.254095688,0.703110538,1,1,2,2,1,3,6,2,8,10,0,10,10,0,5,0,5,5,0,-1,1,0,0,-1,7,35,45,225,0,35,-,-,-,-,-,-,1,0,0,0,0,0,-,-,-,-,2,3,1,3,4,1,99999,1,30,1,1,4,0,0,0,4,100,109,118,126,135,144,153,161,170,200,179,158,136,115,94,73,51,30,-,-,-,-,0,0,7,45,2,-99,-99,-99,-99,16,0,-99,4,0,0,0,-,-1,-1,-1,-1,-1,-,270,45,-,150114_1400,2,subjects,3,2,1,0,0,0,2,1,2,0,0,0,0,0,0,0,0,0,0,0,0,0,0,0,0,0,0,6,5,3,2,4,1,0.991611606,0.845453945,0.544460039,0.519313259,0.810162694,0.473840986,1,1,2,1,1,6,6,2,5,10,0,10,10,0,5,0,5,5,0,-1,1,0,0,-1,6,40,45,145,0,30,-,-,-,-,-,-,1,0,0,0,0,0,-,-,-,-,2,3,3,4,3,2,99999,1,30,1,2,5,0,0,0,6,200,196,193,189,185,181,178,174,170,100,109,118,126,135,144,153,161,170,-,-,-,-,0,0,7,45,2,-99,-99,-99,-99,16,0,-99,4,0,0,0,-,-1,-1,-1,-1,-1,-,190,32,-,150114_1400,2,subjects,3,3,1,0,0,0,3,1,3,0,0,0,0,0,0,0,0,0,0,0,0,0,0,0,0,0,0,4,5,3,2,1,6,0.123285597,0.649111571,0.105868812,0.074518307,0.021307984,0.837417376,1,1,1,2,1,3,6,2,6,10,0,10,10,10,5,0,5,5,0,-1,1,0,0,-1,3,35,55,100,0,35,-,-,-,-,-,-,1,0,0,0,0,0,-,-,-,-,2,3,2,5,2,3,99999,1,30,1,3,5,0,0,0,4,100,109,118,126,135,144,153,161,170,200,179,158,136,115,94,73,51,30,-,-,-,-,0,0,7,45,2,-99,-99,-99,-99,16,0,-99,4,0,0,0,-,-1,-1,-1,-1,-1,-,155,26,-,150114_1400,2,subjects,3,4,1,0,0,0,4,1,4,0,0,0,0,0,0,0,0,0,0,0,0,0,0,0,0,0,0,3,4,5,1,2,6,0.335483563,0.513405693,0.584068356,0.048286169,0.21867568,0.673184904,1,1,1,1,1,7,6,2,6,10,0,10,10,10,5,0,5,5,0,-1,2,0,0,-1,7,30,55,150,0,40,-,-,-,-,-,-,1,0,0,0,0,0,-,-,-,-,3,1,3,1,1,1,99999,1,35,1,1,4,0,0,0,3,100,109,118,126,135,144,153,161,170,200,196,193,189,185,181,178,174,170,-,-,-,-,0,0,7,45,2,-99,-99,-99,-99,16,0,-99,4,0,0,0,-,-1,-1,-1,-1,-1,-,205,35,-,150114_1400,2,subjects,3,5,2,0,0,0,5,1,1,0,0,0,0,0,0,0,0,0,0,0,0,0,0,0,0,0,0,4,3,1,5,6,2,0.404391997,0.3445467,0.016253743,0.570543371,0.822255362,0.122435405,1,1,4,2,1,4,6,2,6,10,10,10,10,10,5,5,0,5,5,-1,1,0,0,-1,1,35,70,150,0,35,-,-,-,-,-,-,1,0,0,0,0,0,-,-,-,-,2,3,5,6,4,1,99999,1,30,2,1,5,0,0,0,4,100,109,118,126,135,144,153,161,170,200,179,158,136,115,94,73,51,30,-,-,-,-,0,0,7,45,2,-99,-99,-99,-99,16,0,-99,6,0,0,0,-,-1,-1,-1,-1,-1,-,220,37,-,150114_1400,2,subjects,3,6,2,0,0,0,6,1,2,0,0,0,0,0,0,0,0,0,0,0,0,0,0,0,0,0,0,1,6,4,2,5,3,0.234829302,0.80947447,0.436865239,0.35503696,0.642694871,0.429180391,1,1,4,1,1,4,6,2,6,10,10,10,10,10,5,5,0,5,5,-1,2,0,0,-1,3,35,70,150,0,35,-,-,-,-,-,-,1,0,0,0,0,0,-,-,-,-,3,1,5,1,3,3,99999,1,35,1,3,2,35,6,4,1,170,170,170,170,170,170,170,170,170,170,153,135,118,100,83,65,48,30,-,-,-,-,0,0,7,45,2,-99,-99,-99,-99,16,0,-99,6,0,0,0,-,-1,-1,-1,-1,-1,-,255,43,-,150114_1400,2,subjects,3,7,2,0,0,0,7,1,3,0,0,0,0,0,0,0,0,0,0,0,0,0,0,0,0,0,0,5,4,3,2,1,6,0.382835975,0.263380895,0.192636123,0.181323951,0.053460666,0.645872632,1,1,3,2,1,4,0,2,6,10,10,0,10,10,5,5,0,5,5,-1,1,0,0,-1,4,20,60,165,0,50,-,-,-,-,-,-,1,0,0,0,0,0,-,-,-,-,2,3,3,5,2,2,99999,1,30,2,3,1,35,1,4,5,200,188,175,163,150,138,125,113,100,100,113,125,138,150,163,175,188,200,-,-,-,-,0,0,7,45,2,-99,-99,-99,-99,16,0,-99,6,0,0,0,-,-1,-1,-1,-1,-1,-,260,44,-,150114_1400,2,subjects,3,8,2,0,0,0,8,1,4,0,0,0,0,0,0,0,0,0,0,0,0,0,0,0,0,0,0,1,5,6,3,4,2,0.391142683,0.724152529,0.739881754,0.441039808,0.472404047,0.394066432,1,1,3,1,1,4,6,2,6,10,10,10,10,10,5,5,0,5,5,-1,1,0,0,-1,2,35,70,225,0,35,-,-,-,-,-,-,1,0,0,0,0,0,-,-,-,-,2,3,4,5,4,1,99999,1,30,2,4,2,35,6,4,1,170,170,170,170,170,170,170,170,170,170,153,135,118,100,83,65,48,30,-,-,-,-,0,0,7,45,2,-99,-99,-99,-99,16,0,-99,6,0,0,0,-,-1,-1,-1,-1,-1,-,330,55,-,150114_1400,2,subjects,3,9,3,0,0,0,9,1,1,0,0,0,0,0,0,0,0,0,0,0,0,0,0,0,0,0,0,1,5,6,4,3,2,0.572644793,0.784716803,0.913927699,0.705275534,0.635319543,0.598891691,1,1,6,2,1,7,6,2,3,10,0,10,10,0,0,0,5,5,0,-1,3,0,0,-1,7,35,40,225,0,35,-,-,-,-,-,-,1,0,0,0,0,0,-,-,-,-,1,2,1,1,1,4,99999,1,35,1,1,1,30,3,1,1,170,170,170,170,170,170,170,170,170,170,153,135,118,100,83,65,48,30,-,-,-,-,0,0,7,45,2,-99,-99,-99,-99,16,0,-99,2,0,0,0,-,-1,-1,-1,-1,-1,-,295,50,-,150114_1400,2,subjects,3,10,3,0,0,0,10,1,2,0,0,0,0,0,0,0,0,0,0,0,0,0,0,0,0,0,0,2,1,6,5,3,4,0.282147525,0.264195602,0.83154738,0.735316093,0.55605027,0.667078245,1,1,6,1,1,7,6,2,6,10,0,10,10,10,0,0,5,5,0,-1,2,0,0,-1,4,35,50,225,0,35,-,-,-,-,-,-,1,0,0,0,0,0,-,-,-,-,3,1,5,2,2,3,99999,1,20,2,3,4,0,0,0,2,170,174,178,181,185,189,193,196,200,30,39,48,56,65,74,83,91,100,-,-,-,-,0,0,7,45,2,-99,-99,-99,-99,16,0,-99,2,0,0,0,-,-1,-1,-1,-1,-1,-,275,46,-,150114_1400,2,subjects,3,11,3,0,0,0,11,1,3,0,0,0,0,0,0,0,0,0,0,0,0,0,0,0,0,0,0,2,1,4,3,5,6,0.511647729,0.507040058,0.534930763,0.524313097,0.581327325,0.628609767,1,1,5,2,1,7,6,2,6,10,0,10,10,10,0,0,5,5,0,-1,2,0,0,-1,6,35,50,149,0,35,-,-,-,-,-,-,1,0,0,0,0,0,-,-,-,-,3,1,4,1,2,2,99999,1,40,1,2,1,35,1,3,2,170,174,178,181,185,189,193,196,200,30,39,48,56,65,74,83,91,100,-,-,-,-,0,0,7,45,2,-99,-99,-99,-99,16,0,-99,2,0,0,0,-,-1,-1,-1,-1,-1,-,234,39,-,150114_1400,2,subjects,3,12,3,0,0,0,12,1,4,0,0,0,0,0,0,0,0,0,0,0,0,0,0,0,0,0,0,5,2,6,4,1,3,0.83271583,0.43481744,0.935070158,0.591722738,0.109980561,0.45757432,1,1,5,1,0,7,6,2,8,0,0,10,10,0,0,0,5,5,0,-1,1,0,0,-1,5,-1,30,225,0,-1,-,-,-,-,-,-,1,0,0,0,0,0,-,-,-,-,2,3,4,6,1,4,0,1,30,3,4,2,35,4,2,5,200,188,175,163,150,138,125,113,100,100,113,125,138,150,163,175,188,200,-,-,-,-,0,0,7,45,2,-99,-99,-99,-99,16,0,-99,2,0,0,0,-,-1,-1,-1,-1,-1,-,290,49,-,150114_1400,2,subjects,3,13,4,0,0,0,1,2,1,0,0,0,0,0,0,0,0,0,0,0,0,0,0,0,0,0,0,4,3,2,5,1,6,0.536882138,0.368359166,0.324233423,0.771851433,0.26228026,0.94254982,1,1,8,2,1,3,6,2,6,10,0,10,10,10,5,0,5,5,5,-1,2,0,0,-1,5,35,60,225,0,35,-,-,-,-,-,-,1,0,0,0,0,0,-,-,-,-,3,1,6,3,4,4,99999,1,-1,3,4,1,30,1,2,4,100,109,118,126,135,144,153,161,170,200,179,158,136,115,94,73,51,30,-,-,-,-,0,0,7,45,2,-99,-99,-99,-99,16,0,-99,2,0,0,0,-,-1,-1,-1,-1,-1,-,315,53,-,150114_1400,2,subjects,3,14,4,0,0,0,2,2,2,0,0,0,0,0,0,0,0,0,0,0,0,0,0,0,0,0,0,4,2,5,3,6,1,0.485503999,0.378095546,0.651849147,0.443286885,0.954498542,0.33036243,1,1,8,1,1,7,6,2,6,10,0,10,10,10,5,0,5,5,5,-1,3,0,0,-1,6,0,60,15,0,70,-,-,-,-,-,-,1,0,0,0,0,0,-,-,-,-,1,2,1,3,2,3,99999,1,30,1,2,3,30,1,2,4,100,109,118,126,135,144,153,161,170,200,179,158,136,115,94,73,51,30,-,-,-,-,0,0,7,45,2,-99,-99,-99,-99,16,0,-99,2,0,0,0,-,-1,-1,-1,-1,-1,-,105,18,-,150114_1400,2,subjects,3,15,4,0,0,0,3,2,3,0,0,0,0,0,0,0,0,0,0,0,0,0,0,0,0,0,0,2,6,1,5,3,4,0.076161158,0.776079642,0.040579833,0.422359665,0.157372064,0.318701872,1,1,7,2,1,7,6,2,6,10,0,10,10,10,5,0,5,5,5,-1,1,0,0,-1,8,35,60,250,0,35,-,-,-,-,-,-,1,0,0,0,0,0,-,-,-,-,2,3,6,6,2,3,99999,1,30,4,3,2,30,4,3,2,170,174,178,181,185,189,193,196,200,30,39,48,56,65,74,83,91,100,-,-,-,-,0,0,7,45,2,-99,-99,-99,-99,16,0,-99,2,0,0,0,-,-1,-1,-1,-1,-1,-,340,57,-,150114_1400,2,subjects,3,16,4,0,0,0,4,2,4,0,0,0,0,0,0,0,0,0,0,0,0,0,0,0,0,0,0,2,5,4,1,6,3,0.648478576,0.905380191,0.868270441,0.075603444,0.979431607,0.815557542,1,1,7,1,1,3,6,2,6,10,0,10,10,10,5,0,5,5,5,-1,2,0,0,-1,2,35,60,300,0,35,-,-,-,-,-,-,1,0,0,0,0,0,-,-,-,-,3,1,5,2,1,4,99999,1,35,2,4,5,0,0,0,2,170,174,178,181,185,189,193,196,200,30,39,48,56,65,74,83,91,100,-,-,-,-,0,0,7,45,2,-99,-99,-99,-99,16,0,-99,2,0,0,0,-,-1,-1,-1,-1,-1,-,360,60,-,150114_1400,2,subjects,3,17,5,0,0,0,5,2,1,0,0,0,0,0,0,0,0,0,0,0,0,0,0,0,0,0,0,2,1,3,5,6,4,0.32267254,0.219307348,0.451592427,0.7248663,0.976707581,0.529432509,1,1,10,2,1,6,6,2,6,10,0,10,10,10,5,0,5,5,5,-1,3,0,0,-1,2,30,60,100,0,40,-,-,-,-,-,-,1,0,0,0,0,0,-,-,-,-,1,2,2,4,4,4,99999,1,35,2,4,5,0,0,0,2,170,174,178,181,185,189,193,196,200,30,39,48,56,65,74,83,91,100,-,-,-,-,0,0,7,45,2,-99,-99,-99,-99,16,0,-99,5,0,0,0,-,-1,-1,-1,-1,-1,-,160,27,-,150114_1400,2,subjects,3,18,5,0,0,0,6,2,2,0,0,0,0,0,0,0,0,0,0,0,0,0,0,0,0,0,0,1,6,4,5,3,2,0.012501338,0.772700941,0.307023643,0.356693196,0.186057962,0.040353383,1,1,10,1,1,7,6,2,6,10,0,10,10,10,5,0,5,5,5,-1,3,0,0,-1,4,35,60,60,0,35,-,-,-,-,-,-,1,0,0,0,0,0,-,-,-,-,1,2,2,3,3,2,99999,1,50,2,3,5,0,0,0,1,170,170,170,170,170,170,170,170,170,170,153,135,118,100,83,65,48,30,-,-,-,-,0,0,7,45,2,-99,-99,-99,-99,16,0,-99,5,0,0,0,-,-1,-1,-1,-1,-1,-,120,20,-,150114_1400,2,subjects,3,19,5,0,0,0,7,2,3,0,0,0,0,0,0,0,0,0,0,0,0,0,0,0,0,0,0,3,4,1,6,5,2,0.14637115,0.255458173,0.02524724,0.905674175,0.800001294,0.044361976,1,1,9,2,1,7,6,2,6,10,0,10,10,10,5,0,5,5,5,-1,3,0,0,-1,3,35,60,45,0,35,-,-,-,-,-,-,1,0,0,0,0,0,-,-,-,-,1,2,1,2,3,2,99999,1,35,1,3,4,0,0,0,3,100,109,118,126,135,144,153,161,170,200,196,193,189,185,181,178,174,170,-,-,-,-,0,0,7,45,2,-99,-99,-99,-99,16,0,-99,5,0,0,0,-,-1,-1,-1,-1,-1,-,105,18,-,150114_1400,2,subjects,3,20,5,0,0,0,8,2,4,0,0,0,0,0,0,0,0,0,0,0,0,0,0,0,0,0,0,2,6,1,5,4,3,0.648717356,0.898601773,0.381314959,0.804956588,0.760517408,0.665864526,1,1,9,1,1,7,6,2,6,10,0,10,10,10,5,0,5,5,5,-1,2,0,0,-1,1,35,60,225,0,35,-,-,-,-,-,-,1,0,0,0,0,0,-,-,-,-,3,1,6,2,1,1,99999,1,35,2,1,5,0,0,0,2,170,174,178,181,185,189,193,196,200,30,39,48,56,65,74,83,91,100,-,-,-,-,0,0,7,45,2,-99,-99,-99,-99,16,0,-99,5,0,0,0,-,-1,-1,-1,-1,-1,-,285,48,-,150114_1400,2,subjects,3,21,6,0,0,0,9,2,1,0,0,0,0,0,0,0,0,0,0,0,0,0,0,0,0,0,0,3,6,4,2,1,5,0.13021568,0.992598104,0.436430382,0.059917912,0.016076735,0.665459708,1,1,12,2,1,2,6,2,6,10,0,10,10,10,5,0,5,5,5,-1,3,0,0,-1,1,30,60,225,0,40,-,-,-,-,-,-,1,0,0,0,0,0,-,-,-,-,1,2,2,5,1,4,99999,1,35,2,1,5,0,0,0,3,100,109,118,126,135,144,153,161,170,200,196,193,189,185,181,178,174,170,-,-,-,-,0,0,7,45,2,-99,-99,-99,-99,16,0,-99,3,0,0,0,-,-1,-1,-1,-1,-1,-,285,48,-,150114_1400,2,subjects,3,22,6,0,0,0,10,2,2,0,0,0,0,0,0,0,0,0,0,0,0,0,0,0,0,0,0,6,4,3,5,1,2,0.902363813,0.655193447,0.201681156,0.816821485,0.172176668,0.191268443,1,1,12,1,1,1,6,2,6,10,0,10,10,10,5,0,5,5,5,-1,2,0,0,-1,8,35,60,225,0,35,-,-,-,-,-,-,1,0,0,0,0,0,-,-,-,-,3,1,6,4,3,3,99999,1,35,4,3,1,35,1,1,6,200,196,193,189,185,181,178,174,170,100,109,118,126,135,144,153,161,170,-,-,-,-,0,0,7,45,2,-99,-99,-99,-99,16,0,-99,3,0,0,0,-,-1,-1,-1,-1,-1,-,320,54,-,150114_1400,2,subjects,3,23,6,0,0,0,11,2,3,0,0,0,0,0,0,0,0,0,0,0,0,0,0,0,0,0,0,3,1,4,2,6,5,0.555635587,0.25698733,0.596338755,0.454950717,0.955806307,0.827907924,1,1,11,2,1,1,6,2,6,10,0,10,10,10,5,0,5,5,5,-1,3,0,0,-1,8,35,60,3,0,35,-,-,-,-,-,-,1,0,0,0,0,0,-,-,-,-,1,2,4,6,3,2,99999,1,35,4,3,3,35,4,3,3,100,109,118,126,135,144,153,161,170,200,196,193,189,185,181,178,174,170,-,-,-,-,0,0,7,45,2,-99,-99,-99,-99,16,0,-99,3,0,0,0,-,-1,-1,-1,-1,-1,-,98,17,-,150114_1400,2,subjects,3,24,6,0,0,0,12,2,4,0,0,0,0,0,0,0,0,0,0,0,0,0,0,0,0,0,0,5,6,1,2,3,4,0.567304653,0.841103799,0.023143068,0.06185059,0.253231502,0.500265504,1,1,11,1,1,7,6,2,6,10,0,10,10,10,5,0,5,5,5,-1,3,0,0,-1,5,35,60,225,0,35,-,-,-,-,-,-,1,0,0,0,0,0,-,-,-,-,1,2,3,4,4,1,99999,1,-1,3,4,4,0,0,0,5,200,188,175,163,150,138,125,113,100,100,113,125,138,150,163,175,188,200,-,-,-,-,0,0,7,45,2,-99,-99,-99,-99,16,0,-99,3,0,0,0,-,-1,-1,-1,-1,-1,-,285,48,-,150114_1400,2,subjects,4,1,1,0,0,0,1,1,1,0,0,0,0,0,0,0,0,0,0,0,0,0,0,0,0,0,0,2,5,3,6,1,4,0.170081624,0.541845118,0.322043375,0.773259663,0.12114817,0.379906035,1,1,2,2,1,3,6,2,8,10,0,10,10,0,5,0,5,5,0,-1,1,0,0,-1,4,35,45,225,0,35,-,-,-,-,-,-,1,0,0,0,0,0,-,-,-,-,2,3,3,6,1,2,99999,3,35,6,2,1,30,1,1,2,170,174,178,181,185,189,193,196,200,30,39,48,56,65,74,83,91,100,-,-,-,-,0,0,7,45,2,-99,-99,-99,-99,16,0,-99,5,0,0,0,-,-1,-1,-1,-1,-1,-,300,50,-,150114_1400,2,subjects,4,2,1,0,0,0,2,1,2,0,0,0,0,0,0,0,0,0,0,0,0,0,0,0,0,0,0,6,4,3,2,5,1,0.83625548,0.611780385,0.484686211,0.401368772,0.806477635,0.192928012,1,1,2,1,1,6,6,2,5,10,0,10,10,0,5,0,5,5,0,-1,1,0,0,-1,6,30,45,145,0,40,-,-,-,-,-,-,1,0,0,0,0,0,-,-,-,-,2,3,2,5,1,1,99999,3,50,5,1,1,30,1,2,6,200,196,193,189,185,181,178,174,170,100,109,118,126,135,144,153,161,170,-,-,-,-,0,0,7,45,2,-99,-99,-99,-99,16,0,-99,5,0,0,0,-,-1,-1,-1,-1,-1,-,220,37,-,150114_1400,2,subjects,4,3,1,0,0,0,3,1,3,0,0,0,0,0,0,0,0,0,0,0,0,0,0,0,0,0,0,6,4,1,2,5,3,0.732491986,0.54109128,0.078065331,0.494671293,0.675642869,0.522869399,1,1,1,2,1,3,6,2,6,10,0,10,10,10,5,0,5,5,0,-1,1,0,0,-1,2,35,55,100,0,35,-,-,-,-,-,-,1,0,0,0,0,0,-,-,-,-,2,3,4,6,4,4,99999,3,35,6,4,2,50,4,3,6,200,196,193,189,185,181,178,174,170,100,109,118,126,135,144,153,161,170,-,-,-,-,0,0,7,45,2,-99,-99,-99,-99,16,0,-99,5,0,0,0,-,-1,-1,-1,-1,-1,-,205,35,-,150114_1400,2,subjects,4,4,1,0,0,0,4,1,4,0,0,0,0,0,0,0,0,0,0,0,0,0,0,0,0,0,0,1,3,6,2,4,5,0.207667654,0.410347817,0.940426477,0.292664133,0.75297569,0.849304301,1,1,1,1,1,7,6,2,6,10,0,10,10,10,5,0,5,5,0,-1,1,0,0,-1,1,35,55,150,0,35,-,-,-,-,-,-,1,0,0,0,0,0,-,-,-,-,2,3,2,4,3,3,99999,3,35,4,3,5,0,0,0,1,170,170,170,170,170,170,170,170,170,170,153,135,118,100,83,65,48,30,-,-,-,-,0,0,7,45,2,-99,-99,-99,-99,16,0,-99,5,0,0,0,-,-1,-1,-1,-1,-1,-,205,35,-,150114_1400,2,subjects,4,5,2,0,0,0,5,1,1,0,0,0,0,0,0,0,0,0,0,0,0,0,0,0,0,0,0,1,4,6,2,3,5,0.065299261,0.764899021,0.886696017,0.378179645,0.529696233,0.864884247,1,1,4,2,1,4,6,2,6,10,10,10,10,10,5,5,0,5,5,-1,2,0,0,-1,6,40,70,150,0,30,-,-,-,-,-,-,1,0,0,0,0,0,-,-,-,-,3,1,5,1,1,2,99999,3,20,5,1,1,40,1,2,1,170,170,170,170,170,170,170,170,170,170,153,135,118,100,83,65,48,30,-,-,-,-,0,0,7,45,2,-99,-99,-99,-99,16,0,-99,5,0,0,0,-,-1,-1,-1,-1,-1,-,260,44,-,150114_1400,2,subjects,4,6,2,0,0,0,6,1,2,0,0,0,0,0,0,0,0,0,0,0,0,0,0,0,0,0,0,5,1,2,6,3,4,0.699962669,0.097610629,0.257381239,0.790897351,0.60459394,0.649888478,1,1,4,1,1,4,6,2,6,10,10,10,10,10,5,5,0,5,5,-1,1,0,0,-1,8,35,70,150,0,35,-,-,-,-,-,-,1,0,0,0,0,0,-,-,-,-,2,3,4,4,1,2,99999,3,35,4,2,2,35,6,4,5,200,188,175,163,150,138,125,113,100,100,113,125,138,150,163,175,188,200,-,-,-,-,0,0,7,45,2,-99,-99,-99,-99,16,0,-99,5,0,0,0,-,-1,-1,-1,-1,-1,-,255,43,-,150114_1400,2,subjects,4,7,2,0,0,0,7,1,3,0,0,0,0,0,0,0,0,0,0,0,0,0,0,0,0,0,0,6,2,1,3,5,4,0.69322887,0.331911779,0.044020307,0.358798241,0.689724,0.653229398,1,1,3,2,1,4,0,2,6,10,10,0,10,10,5,5,0,5,5,-1,2,0,0,-1,1,33,60,165,0,37,-,-,-,-,-,-,1,0,0,0,0,0,-,-,-,-,3,1,4,1,3,4,99999,3,35,4,3,5,0,0,0,6,200,196,193,189,185,181,178,174,170,100,109,118,126,135,144,153,161,170,-,-,-,-,0,0,7,45,2,-99,-99,-99,-99,16,0,-99,5,0,0,0,-,-1,-1,-1,-1,-1,-,225,38,-,150114_1400,2,subjects,4,8,2,0,0,0,8,1,4,0,0,0,0,0,0,0,0,0,0,0,0,0,0,0,0,0,0,6,4,2,5,3,1,0.980225693,0.615956338,0.443802001,0.677207754,0.521560355,0.169387865,1,1,3,1,1,4,6,2,6,10,10,10,10,10,5,5,0,5,5,-1,1,0,0,-1,5,35,70,225,0,35,-,-,-,-,-,-,1,0,0,0,0,0,-,-,-,-,2,3,5,6,4,3,99999,3,35,6,3,1,30,2,4,6,200,196,193,189,185,181,178,174,170,100,109,118,126,135,144,153,161,170,-,-,-,-,0,0,7,45,2,-99,-99,-99,-99,16,0,-99,5,0,0,0,-,-1,-1,-1,-1,-1,-,325,55,-,150114_1400,2,subjects,4,9,3,0,0,0,9,1,1,0,0,0,0,0,0,0,0,0,0,0,0,0,0,0,0,0,0,1,5,4,2,3,6,0.129534008,0.74779453,0.715755704,0.263292234,0.333666531,0.826500446,1,1,6,2,1,7,6,2,3,10,0,10,10,0,0,0,5,5,0,-1,2,0,0,-1,4,35,40,225,0,35,-,-,-,-,-,-,1,0,0,0,0,0,-,-,-,-,3,1,6,1,2,1,99999,3,35,6,2,1,30,3,1,1,170,170,170,170,170,170,170,170,170,170,153,135,118,100,83,65,48,30,-,-,-,-,0,0,7,45,2,-99,-99,-99,-99,16,0,-99,3,0,0,0,-,-1,-1,-1,-1,-1,-,295,50,-,150114_1400,2,subjects,4,10,3,0,0,0,10,1,2,0,0,0,0,0,0,0,0,0,0,0,0,0,0,0,0,0,0,4,5,2,6,3,1,0.46960492,0.657852178,0.173872755,0.760134309,0.191753917,0.109531656,1,1,6,1,1,7,6,2,6,10,0,10,10,10,0,0,5,5,0,-1,1,0,0,-1,3,35,50,225,0,35,-,-,-,-,-,-,1,0,0,0,0,0,-,-,-,-,2,3,5,6,2,1,99999,3,40,6,1,5,0,0,0,4,100,109,118,126,135,144,153,161,170,200,179,158,136,115,94,73,51,30,-,-,-,-,0,0,7,45,2,-99,-99,-99,-99,16,0,-99,3,0,0,0,-,-1,-1,-1,-1,-1,-,275,46,-,150114_1400,2,subjects,4,11,3,0,0,0,11,1,3,0,0,0,0,0,0,0,0,0,0,0,0,0,0,0,0,0,0,2,1,4,3,6,5,0.441264572,0.126148264,0.577338398,0.552740318,0.706120361,0.667834237,1,1,5,2,1,7,6,2,6,10,0,10,10,10,0,0,5,5,0,-1,1,0,0,-1,7,35,50,149,0,35,-,-,-,-,-,-,1,0,0,0,0,0,-,-,-,-,2,3,3,5,4,3,99999,3,35,5,3,3,40,1,2,2,170,174,178,181,185,189,193,196,200,30,39,48,56,65,74,83,91,100,-,-,-,-,0,0,7,45,2,-99,-99,-99,-99,16,0,-99,3,0,0,0,-,-1,-1,-1,-1,-1,-,239,40,-,150114_1400,2,subjects,4,12,3,0,0,0,12,1,4,0,0,0,0,0,0,0,0,0,0,0,0,0,0,0,0,0,0,1,2,5,4,6,3,0.383774299,0.582088974,0.913980245,0.806078002,0.933387505,0.624051015,1,1,5,1,0,7,6,2,8,0,0,10,10,0,0,0,5,5,0,-1,2,0,0,-1,7,35,30,225,0,35,-,-,-,-,-,-,1,0,0,0,0,0,-,-,-,-,3,1,5,3,3,3,99999,3,35,5,3,2,35,4,2,1,170,170,170,170,170,170,170,170,170,170,153,135,118,100,83,65,48,30,-,-,-,-,0,0,7,45,2,-99,-99,-99,-99,16,0,-99,3,0,0,0,-,-1,-1,-1,-1,-1,-,290,49,-,150114_1400,2,subjects,4,13,4,0,0,0,1,2,1,0,0,0,0,0,0,0,0,0,0,0,0,0,0,0,0,0,0,3,2,6,4,1,5,0.798186836,0.42540436,0.898541697,0.808090801,0.214655446,0.861084749,1,1,8,2,1,3,6,2,6,10,0,10,10,10,5,0,5,5,5,-1,2,0,0,-1,8,35,60,225,0,35,-,-,-,-,-,-,1,0,0,0,0,0,-,-,-,-,3,1,4,2,2,2,99999,3,35,4,2,3,-1,3,4,3,100,109,118,126,135,144,153,161,170,200,196,193,189,185,181,178,174,170,-,-,-,-,0,0,7,45,2,-99,-99,-99,-99,16,0,-99,5,0,0,0,-,-1,-1,-1,-1,-1,-,284,48,-,150114_1400,2,subjects,4,14,4,0,0,0,2,2,2,0,0,0,0,0,0,0,0,0,0,0,0,0,0,0,0,0,0,6,3,5,2,4,1,0.901846368,0.4232967,0.714072904,0.311323074,0.537090896,0.265979135,1,1,8,1,1,7,6,2,6,10,0,10,10,10,5,0,5,5,5,-1,3,0,0,-1,8,35,60,15,0,35,-,-,-,-,-,-,1,0,0,0,0,0,-,-,-,-,1,2,2,4,2,1,99999,3,30,4,2,2,30,4,2,6,200,196,193,189,185,181,178,174,170,100,109,118,126,135,144,153,161,170,-,-,-,-,0,0,7,45,2,-99,-99,-99,-99,16,0,-99,5,0,0,0,-,-1,-1,-1,-1,-1,-,105,18,-,150114_1400,2,subjects,4,15,4,0,0,0,3,2,3,0,0,0,0,0,0,0,0,0,0,0,0,0,0,0,0,0,0,2,5,3,1,4,6,0.290022322,0.980585222,0.372451847,0.147870726,0.459803295,0.994553448,1,1,7,2,1,7,6,2,6,10,0,10,10,10,5,0,5,5,5,-1,3,0,0,-1,1,35,60,250,0,35,-,-,-,-,-,-,1,0,0,0,0,0,-,-,-,-,1,2,1,2,4,3,99999,3,30,4,3,5,0,0,0,2,170,174,178,181,185,189,193,196,200,30,39,48,56,65,74,83,91,100,-,-,-,-,0,0,7,45,2,-99,-99,-99,-99,16,0,-99,5,0,0,0,-,-1,-1,-1,-1,-1,-,310,52,-,150114_1400,2,subjects,4,16,4,0,0,0,4,2,4,0,0,0,0,0,0,0,0,0,0,0,0,0,0,0,0,0,0,5,2,3,6,4,1,0.659026447,0.406909815,0.467407812,0.67382796,0.653759407,0.152577643,1,1,7,1,1,3,6,2,6,10,0,10,10,10,5,0,5,5,5,-1,2,0,0,-1,2,35,60,300,0,35,-,-,-,-,-,-,1,0,0,0,0,0,-,-,-,-,3,1,6,1,4,3,99999,3,35,6,4,1,35,2,4,5,200,188,175,163,150,138,125,113,100,100,113,125,138,150,163,175,188,200,-,-,-,-,0,0,7,45,2,-99,-99,-99,-99,16,0,-99,5,0,0,0,-,-1,-1,-1,-1,-1,-,395,66,-,150114_1400,2,subjects,4,17,5,0,0,0,5,2,1,0,0,0,0,0,0,0,0,0,0,0,0,0,0,0,0,0,0,6,5,4,1,3,2,0.599076208,0.58738708,0.244756593,0.003424332,0.182669693,0.09464923,1,1,10,2,1,6,6,2,6,10,0,10,10,10,5,0,5,5,5,-1,3,0,0,-1,6,50,60,100,0,20,-,-,-,-,-,-,1,0,0,0,0,0,-,-,-,-,1,2,1,2,2,1,99999,3,30,5,1,2,70,5,3,6,200,196,193,189,185,181,178,174,170,100,109,118,126,135,144,153,161,170,-,-,-,-,0,0,7,45,2,-99,-99,-99,-99,16,0,-99,6,0,0,0,-,-1,-1,-1,-1,-1,-,230,39,-,150114_1400,2,subjects,4,18,5,0,0,0,6,2,2,0,0,0,0,0,0,0,0,0,0,0,0,0,0,0,0,0,0,1,6,4,2,5,3,0.251383028,0.785045598,0.347636281,0.257487896,0.500780563,0.279393118,1,1,10,1,1,7,6,2,6,10,0,10,10,10,5,0,5,5,5,-1,2,0,0,-1,3,35,60,60,0,35,-,-,-,-,-,-,1,0,0,0,0,0,-,-,-,-,3,1,6,3,1,2,99999,3,30,6,1,5,0,0,0,1,170,170,170,170,170,170,170,170,170,170,153,135,118,100,83,65,48,30,-,-,-,-,0,0,7,45,2,-99,-99,-99,-99,16,0,-99,6,0,0,0,-,-1,-1,-1,-1,-1,-,120,20,-,150114_1400,2,subjects,4,19,5,0,0,0,7,2,3,0,0,0,0,0,0,0,0,0,0,0,0,0,0,0,0,0,0,2,1,3,4,6,5,0.521105475,0.219711088,0.763917032,0.769611536,0.926759294,0.771082727,1,1,9,2,1,7,6,2,6,10,0,10,10,10,5,0,5,5,5,-1,3,0,0,-1,7,35,60,45,0,35,-,-,-,-,-,-,1,0,0,0,0,0,-,-,-,-,1,2,3,3,3,4,99999,3,30,5,3,5,0,0,0,2,170,174,178,181,185,189,193,196,200,30,39,48,56,65,74,83,91,100,-,-,-,-,0,0,7,45,2,-99,-99,-99,-99,16,0,-99,6,0,0,0,-,-1,-1,-1,-1,-1,-,105,18,-,150114_1400,2,subjects,4,20,5,0,0,0,8,2,4,0,0,0,0,0,0,0,0,0,0,0,0,0,0,0,0,0,0,2,6,1,3,5,4,0.043449795,0.992987914,0.026515961,0.153549899,0.830691613,0.522543624,1,1,9,1,1,7,6,2,6,10,0,10,10,10,5,0,5,5,5,-1,2,0,0,-1,5,35,60,225,0,35,-,-,-,-,-,-,1,0,0,0,0,0,-,-,-,-,3,1,6,2,3,4,99999,3,35,6,3,1,35,3,4,2,170,174,178,181,185,189,193,196,200,30,39,48,56,65,74,83,91,100,-,-,-,-,0,0,7,45,2,-99,-99,-99,-99,16,0,-99,6,0,0,0,-,-1,-1,-1,-1,-1,-,320,54,-,150114_1400,2,subjects,4,21,6,0,0,0,9,2,1,0,0,0,0,0,0,0,0,0,0,0,0,0,0,0,0,0,0,4,1,3,5,6,2,0.350766123,0.125454936,0.325166028,0.405159906,0.933256664,0.260702781,1,1,12,2,1,2,6,2,6,10,0,10,10,10,5,0,5,5,5,-1,3,0,0,-1,3,40,60,225,0,30,-,-,-,-,-,-,1,0,0,0,0,0,-,-,-,-,1,2,3,5,2,2,99999,3,30,6,1,2,30,6,1,4,100,109,118,126,135,144,153,161,170,200,179,158,136,115,94,73,51,30,-,-,-,-,0,0,7,45,2,-99,-99,-99,-99,16,0,-99,1,0,0,0,-,-1,-1,-1,-1,-1,-,315,53,-,150114_1400,2,subjects,4,22,6,0,0,0,10,2,2,0,0,0,0,0,0,0,0,0,0,0,0,0,0,0,0,0,0,4,6,3,2,5,1,0.68425958,0.79151328,0.618916252,0.433942684,0.734356541,0.32645135,1,1,12,1,1,1,6,2,6,10,0,10,10,10,5,0,5,5,5,-1,3,0,0,-1,4,35,60,225,0,35,-,-,-,-,-,-,1,0,0,0,0,0,-,-,-,-,1,2,1,3,1,1,99999,3,30,6,2,2,30,6,2,4,100,109,118,126,135,144,153,161,170,200,179,158,136,115,94,73,51,30,-,-,-,-,0,0,7,45,2,-99,-99,-99,-99,16,0,-99,1,0,0,0,-,-1,-1,-1,-1,-1,-,315,53,-,150114_1400,2,subjects,4,23,6,0,0,0,11,2,3,0,0,0,0,0,0,0,0,0,0,0,0,0,0,0,0,0,0,6,5,1,2,4,3,0.999850419,0.922076795,0.168617076,0.713159529,0.723090414,0.717918125,1,1,11,2,1,1,6,2,6,10,0,10,10,10,5,0,5,5,5,-1,3,0,0,-1,5,35,60,3,0,35,-,-,-,-,-,-,1,0,0,0,0,0,-,-,-,-,1,2,2,5,4,4,99999,3,30,6,3,3,35,4,3,6,200,196,193,189,185,181,178,174,170,100,109,118,126,135,144,153,161,170,-,-,-,-,0,0,7,45,2,-99,-99,-99,-99,16,0,-99,1,0,0,0,-,-1,-1,-1,-1,-1,-,98,17,-,150114_1400,2,subjects,4,24,6,0,0,0,12,2,4,0,0,0,0,0,0,0,0,0,0,0,0,0,0,0,0,0,0,4,6,5,3,2,1,0.649591094,0.963695525,0.790297917,0.442463988,0.330385644,0.049924352,1,1,11,1,1,7,6,2,6,10,0,10,10,10,5,0,5,5,5,-1,3,0,0,-1,2,35,60,225,0,35,-,-,-,-,-,-,1,0,0,0,0,0,-,-,-,-,1,2,1,4,3,4,99999,3,30,6,4,2,30,6,4,4,100,109,118,126,135,144,153,161,170,200,179,158,136,115,94,73,51,30,-,-,-,-,0,0,7,45,2,-99,-99,-99,-99,16,0,-99,1,0,0,0,-,-1,-1,-1,-1,-1,-,315,53,-,150114_1400,2,subjects,5,1,1,0,0,0,1,1,1,0,0,0,0,0,0,0,0,0,0,0,0,0,0,0,0,0,0,1,6,5,4,3,2,0.032582064,0.922188451,0.695664552,0.606744753,0.184817283,0.055453945,1,1,2,2,1,3,6,2,8,10,0,10,10,0,5,0,5,5,0,-1,1,0,0,-1,4,35,45,225,0,35,-,-,-,-,-,-,1,0,0,0,0,0,-,-,-,-,2,3,4,5,3,1,99999,1,30,1,1,1,30,1,1,1,170,170,170,170,170,170,170,170,170,170,153,135,118,100,83,65,48,30,-,-,-,-,0,0,7,45,2,-99,-99,-99,-99,16,0,-99,3,0,0,0,-,-1,-1,-1,-1,-1,-,300,50,-,150114_1400,2,subjects,5,2,1,0,0,0,2,1,2,0,0,0,0,0,0,0,0,0,0,0,0,0,0,0,0,0,0,6,2,5,3,1,4,0.865597128,0.221296155,0.82129643,0.573946027,0.05232077,0.783217545,1,1,2,1,1,6,6,2,5,10,0,10,10,0,5,0,5,5,0,-1,1,0,0,-1,7,35,45,145,0,35,-,-,-,-,-,-,1,0,0,0,0,0,-,-,-,-,2,3,5,5,2,4,99999,1,30,1,2,5,30,1,2,6,200,196,193,189,185,181,178,174,170,100,109,118,126,135,144,153,161,170,-,-,-,-,0,0,7,45,2,-99,-99,-99,-99,16,0,-99,3,0,0,0,-,-1,-1,-1,-1,-1,-,220,37,-,150114_1400,2,subjects,5,3,1,0,0,0,3,1,3,0,0,0,0,0,0,0,0,0,0,0,0,0,0,0,0,0,0,6,4,1,2,3,5,0.854593614,0.537271529,0.174562123,0.482702637,0.524373577,0.634887249,1,1,1,2,1,3,6,2,6,10,0,10,10,10,5,0,5,5,0,-1,1,0,0,-1,3,35,55,100,0,35,-,-,-,-,-,-,1,0,0,0,0,0,-,-,-,-,2,3,3,4,3,1,99999,1,30,1,3,4,35,6,4,6,200,196,193,189,185,181,178,174,170,100,109,118,126,135,144,153,161,170,-,-,-,-,0,0,7,45,2,-99,-99,-99,-99,16,0,-99,3,0,0,0,-,-1,-1,-1,-1,-1,-,190,32,-,150114_1400,2,subjects,5,4,1,0,0,0,4,1,4,0,0,0,0,0,0,0,0,0,0,0,0,0,0,0,0,0,0,5,6,2,1,3,4,0.87494406,0.945261572,0.559056075,0.011240545,0.598040822,0.733651616,1,1,1,1,1,7,6,2,6,10,0,10,10,10,5,0,5,5,0,-1,1,0,0,-1,5,69,55,150,0,1,-,-,-,-,-,-,1,0,0,0,0,0,-,-,-,-,2,3,2,4,2,4,99999,1,30,1,4,5,30,1,4,5,200,188,175,163,150,138,125,113,100,100,113,125,138,150,163,175,188,200,-,-,-,-,0,0,7,45,2,-99,-99,-99,-99,16,0,-99,3,0,0,0,-,-1,-1,-1,-1,-1,-,235,40,-,150114_1400,2,subjects,5,5,2,0,0,0,5,1,1,0,0,0,0,0,0,0,0,0,0,0,0,0,0,0,0,0,0,5,4,3,2,6,1,0.677512148,0.405576508,0.353977799,0.272099397,0.695307466,0.229947858,1,1,4,2,1,4,6,2,6,10,10,10,10,10,5,5,0,5,5,-1,1,0,0,-1,8,35,70,150,0,35,-,-,-,-,-,-,1,0,0,0,0,0,-,-,-,-,2,3,2,6,3,3,99999,1,30,2,1,5,30,2,1,5,200,188,175,163,150,138,125,113,100,100,113,125,138,150,163,175,188,200,-,-,-,-,0,0,7,45,2,-99,-99,-99,-99,16,0,-99,2,0,0,0,-,-1,-1,-1,-1,-1,-,250,42,-,150114_1400,2,subjects,5,6,2,0,0,0,6,1,2,0,0,0,0,0,0,0,0,0,0,0,0,0,0,0,0,0,0,6,1,5,2,4,3,0.922583785,0.090928182,0.847493383,0.141194525,0.529100853,0.489064499,1,1,4,1,1,4,6,2,6,10,10,10,10,10,5,5,0,5,5,-1,2,0,0,-1,5,35,70,150,0,35,-,-,-,-,-,-,1,0,0,0,0,0,-,-,-,-,3,1,4,1,4,4,99999,1,69,1,4,1,30,2,2,6,200,196,193,189,185,181,178,174,170,100,109,118,126,135,144,153,161,170,-,-,-,-,0,0,7,45,2,-99,-99,-99,-99,16,0,-99,2,0,0,0,-,-1,-1,-1,-1,-1,-,250,42,-,150114_1400,2,subjects,5,7,2,0,0,0,7,1,3,0,0,0,0,0,0,0,0,0,0,0,0,0,0,0,0,0,0,4,5,2,3,1,6,0.80421783,0.883319168,0.355173771,0.590722281,0.355082476,0.953127816,1,1,3,2,1,4,0,2,6,10,10,0,10,10,5,5,0,5,5,-1,2,0,0,-1,8,10,60,165,0,60,-,-,-,-,-,-,1,0,0,0,0,0,-,-,-,-,3,1,6,2,3,1,99999,1,35,2,1,4,35,4,3,4,100,109,118,126,135,144,153,161,170,200,179,158,136,115,94,73,51,30,-,-,-,-,0,0,7,45,2,-99,-99,-99,-99,16,0,-99,2,0,0,0,-,-1,-1,-1,-1,-1,-,260,44,-,150114_1400,2,subjects,5,8,2,0,0,0,8,1,4,0,0,0,0,0,0,0,0,0,0,0,0,0,0,0,0,0,0,1,6,2,4,5,3,0.056385718,0.871177683,0.067603873,0.647055846,0.707035235,0.367175034,1,1,3,1,1,4,6,2,6,10,10,10,10,10,5,5,0,5,5,-1,1,0,0,-1,2,35,70,225,0,35,-,-,-,-,-,-,1,0,0,0,0,0,-,-,-,-,2,3,3,6,2,4,99999,1,30,2,4,1,30,2,4,1,170,170,170,170,170,170,170,170,170,170,153,135,118,100,83,65,48,30,-,-,-,-,0,0,7,45,2,-99,-99,-99,-99,16,0,-99,2,0,0,0,-,-1,-1,-1,-1,-1,-,325,55,-,150114_1400,2,subjects,5,9,3,0,0,0,9,1,1,0,0,0,0,0,0,0,0,0,0,0,0,0,0,0,0,0,0,1,5,2,4,6,3,0.105964068,0.744828244,0.194818397,0.722978278,0.894085921,0.406910997,1,1,6,2,1,7,6,2,3,10,0,10,10,0,0,0,5,5,0,-1,1,0,0,-1,6,0,40,225,0,70,-,-,-,-,-,-,1,0,0,0,0,0,-,-,-,-,2,3,5,6,3,1,99999,1,30,3,1,4,35,6,2,1,170,170,170,170,170,170,170,170,170,170,153,135,118,100,83,65,48,30,-,-,-,-,0,0,7,45,2,-99,-99,-99,-99,16,0,-99,4,0,0,0,-,-1,-1,-1,-1,-1,-,300,50,-,150114_1400,2,subjects,5,10,3,0,0,0,10,1,2,0,0,0,0,0,0,0,0,0,0,0,0,0,0,0,0,0,0,2,1,3,6,5,4,0.23429035,0.110795642,0.434753025,0.8893761,0.462181792,0.457833211,1,1,6,1,1,7,6,2,6,10,0,10,10,10,0,0,5,5,0,-1,2,0,0,-1,2,35,50,225,0,35,-,-,-,-,-,-,1,0,0,0,0,0,-,-,-,-,3,1,6,2,4,4,99999,1,35,2,4,2,35,6,2,2,170,174,178,181,185,189,193,196,200,30,39,48,56,65,74,83,91,100,-,-,-,-,0,0,7,45,2,-99,-99,-99,-99,16,0,-99,4,0,0,0,-,-1,-1,-1,-1,-1,-,310,52,-,150114_1400,2,subjects,5,11,3,0,0,0,11,1,3,0,0,0,0,0,0,0,0,0,0,0,0,0,0,0,0,0,0,2,3,1,5,4,6,0.254377045,0.269373902,0.085524173,0.660936014,0.312792961,0.662854797,1,1,5,2,1,7,6,2,6,10,0,10,10,10,0,0,5,5,0,-1,2,0,0,-1,3,35,50,149,0,35,-,-,-,-,-,-,1,0,0,0,0,0,-,-,-,-,3,1,4,1,1,3,99999,1,35,1,3,5,35,1,3,2,170,174,178,181,185,189,193,196,200,30,39,48,56,65,74,83,91,100,-,-,-,-,0,0,7,45,2,-99,-99,-99,-99,16,0,-99,4,0,0,0,-,-1,-1,-1,-1,-1,-,234,39,-,150114_1400,2,subjects,5,12,3,0,0,0,12,1,4,0,0,0,0,0,0,0,0,0,0,0,0,0,0,0,0,0,0,4,2,6,1,3,5,0.606522832,0.179996122,0.919843174,0.142360151,0.218287709,0.902079252,1,1,5,1,0,7,6,2,8,0,0,10,10,0,0,0,5,5,0,-1,1,0,0,-1,1,35,30,225,0,35,-,-,-,-,-,-,1,0,0,0,0,0,-,-,-,-,2,3,4,6,2,2,99999,1,30,3,4,4,35,5,3,4,100,109,118,126,135,144,153,161,170,200,179,158,136,115,94,73,51,30,-,-,-,-,0,0,7,45,2,-99,-99,-99,-99,16,0,-99,4,0,0,0,-,-1,-1,-1,-1,-1,-,290,49,-,150114_1400,2,subjects,5,13,4,0,0,0,1,2,1,0,0,0,0,0,0,0,0,0,0,0,0,0,0,0,0,0,0,4,5,6,2,1,3,0.371467506,0.532899075,0.674759848,0.091758557,0.071494408,0.145140083,1,1,8,2,1,3,6,2,6,10,0,10,10,10,5,0,5,5,5,-1,3,0,0,-1,3,35,60,225,0,35,-,-,-,-,-,-,1,0,0,0,0,0,-,-,-,-,1,2,1,3,3,3,99999,1,35,1,3,2,30,6,1,4,100,109,118,126,135,144,153,161,170,200,179,158,136,115,94,73,51,30,-,-,-,-,0,0,7,45,2,-99,-99,-99,-99,16,0,-99,3,0,0,0,-,-1,-1,-1,-1,-1,-,315,53,-,150114_1400,2,subjects,5,14,4,0,0,0,2,2,2,0,0,0,0,0,0,0,0,0,0,0,0,0,0,0,0,0,0,3,6,4,5,1,2,0.495515682,0.898353517,0.665950203,0.770104429,0.046981666,0.467098516,1,1,8,1,1,7,6,2,6,10,0,10,10,10,5,0,5,5,5,-1,2,0,0,-1,1,35,60,15,0,35,-,-,-,-,-,-,1,0,0,0,0,0,-,-,-,-,3,1,6,3,2,4,99999,1,35,3,4,5,35,3,4,3,100,109,118,126,135,144,153,161,170,200,196,193,189,185,181,178,174,170,-,-,-,-,0,0,7,45,2,-99,-99,-99,-99,16,0,-99,3,0,0,0,-,-1,-1,-1,-1,-1,-,110,19,-,150114_1400,2,subjects,5,15,4,0,0,0,3,2,3,0,0,0,0,0,0,0,0,0,0,0,0,0,0,0,0,0,0,2,5,6,3,4,1,0.314992891,0.829243277,0.865672344,0.524761167,0.761521887,0.096693784,1,1,7,2,1,7,6,2,6,10,0,10,10,10,5,0,5,5,5,-1,2,0,0,-1,4,35,60,250,0,35,-,-,-,-,-,-,1,0,0,0,0,0,-,-,-,-,3,1,5,1,1,1,99999,1,35,1,1,3,30,4,3,2,170,174,178,181,185,189,193,196,200,30,39,48,56,65,74,83,91,100,-,-,-,-,0,0,7,45,2,-99,-99,-99,-99,16,0,-99,3,0,0,0,-,-1,-1,-1,-1,-1,-,340,57,-,150114_1400,2,subjects,5,16,4,0,0,0,4,2,4,0,0,0,0,0,0,0,0,0,0,0,0,0,0,0,0,0,0,4,6,5,3,2,1,0.330740388,0.98125204,0.600574016,0.18606257,0.153610908,0.115990447,1,1,7,1,1,3,6,2,6,10,0,10,10,10,5,0,5,5,5,-1,3,0,0,-1,5,40,60,300,0,30,-,-,-,-,-,-,1,0,0,0,0,0,-,-,-,-,1,2,1,2,4,2,99999,1,1,1,4,3,35,2,4,4,100,109,118,126,135,144,153,161,170,200,179,158,136,115,94,73,51,30,-,-,-,-,0,0,7,45,2,-99,-99,-99,-99,16,0,-99,3,0,0,0,-,-1,-1,-1,-1,-1,-,395,66,-,150114_1400,2,subjects,5,17,5,0,0,0,5,2,1,0,0,0,0,0,0,0,0,0,0,0,0,0,0,0,0,0,0,2,6,4,1,5,3,0.286117375,0.913194045,0.738531297,0.245996441,0.744114401,0.401524727,1,1,10,2,1,6,6,2,6,10,0,10,10,10,5,0,5,5,5,-1,3,0,0,-1,4,40,60,100,0,30,-,-,-,-,-,-,1,0,0,0,0,0,-,-,-,-,1,2,1,4,1,3,99999,1,35,1,1,2,70,5,3,2,170,174,178,181,185,189,193,196,200,30,39,48,56,65,74,83,91,100,-,-,-,-,0,0,7,45,2,-99,-99,-99,-99,16,0,-99,5,0,0,0,-,-1,-1,-1,-1,-1,-,230,39,-,150114_1400,2,subjects,5,18,5,0,0,0,6,2,2,0,0,0,0,0,0,0,0,0,0,0,0,0,0,0,0,0,0,1,6,3,5,2,4,0.111298312,0.635309573,0.351589033,0.625064491,0.256727523,0.404776075,1,1,10,1,1,7,6,2,6,10,0,10,10,10,5,0,5,5,5,-1,2,0,0,-1,7,35,60,60,0,35,-,-,-,-,-,-,1,0,0,0,0,0,-,-,-,-,3,1,5,1,4,2,99999,1,35,1,2,1,50,2,2,1,170,170,170,170,170,170,170,170,170,170,153,135,118,100,83,65,48,30,-,-,-,-,0,0,7,45,2,-99,-99,-99,-99,16,0,-99,5,0,0,0,-,-1,-1,-1,-1,-1,-,170,29,-,150114_1400,2,subjects,5,19,5,0,0,0,7,2,3,0,0,0,0,0,0,0,0,0,0,0,0,0,0,0,0,0,0,1,2,6,4,3,5,0.258927961,0.407562236,0.753696166,0.474938188,0.451441628,0.592906602,1,1,9,2,1,7,6,2,6,10,0,10,10,10,5,0,5,5,5,-1,2,0,0,-1,6,35,60,45,0,35,-,-,-,-,-,-,1,0,0,0,0,0,-,-,-,-,3,1,6,3,1,1,99999,1,0,3,1,5,0,3,1,1,170,170,170,170,170,170,170,170,170,170,153,135,118,100,83,65,48,30,-,-,-,-,0,0,7,45,2,-99,-99,-99,-99,16,0,-99,5,0,0,0,-,-1,-1,-1,-1,-1,-,105,18,-,150114_1400,2,subjects,5,20,5,0,0,0,8,2,4,0,0,0,0,0,0,0,0,0,0,0,0,0,0,0,0,0,0,2,5,3,6,1,4,0.219200688,0.426093743,0.283581555,0.647987149,0.066484653,0.369376807,1,1,9,1,1,7,6,2,6,10,0,10,10,10,5,0,5,5,5,-1,3,0,0,-1,7,30,60,225,0,40,-,-,-,-,-,-,1,0,0,0,0,0,-,-,-,-,1,2,1,5,2,2,99999,1,35,1,2,5,35,1,2,2,170,174,178,181,185,189,193,196,200,30,39,48,56,65,74,83,91,100,-,-,-,-,0,0,7,45,2,-99,-99,-99,-99,16,0,-99,5,0,0,0,-,-1,-1,-1,-1,-1,-,320,54,-,150114_1400,2,subjects,5,21,6,0,0,0,9,2,1,0,0,0,0,0,0,0,0,0,0,0,0,0,0,0,0,0,0,3,6,2,5,4,1,0.819483934,0.903032481,0.379436278,0.898493058,0.841870801,0.172299748,1,1,12,2,1,2,6,2,6,10,0,10,10,10,5,0,5,5,5,-1,3,0,0,-1,6,50,60,225,0,20,-,-,-,-,-,-,1,0,0,0,0,0,-,-,-,-,1,2,3,5,1,3,99999,1,70,3,1,4,30,6,1,3,100,109,118,126,135,144,153,161,170,200,196,193,189,185,181,178,174,170,-,-,-,-,0,0,7,45,2,-99,-99,-99,-99,16,0,-99,3,0,0,0,-,-1,-1,-1,-1,-1,-,315,53,-,150114_1400,2,subjects,5,22,6,0,0,0,10,2,2,0,0,0,0,0,0,0,0,0,0,0,0,0,0,0,0,0,0,2,6,3,4,1,5,0.520989319,0.970635743,0.623354779,0.723777057,0.357545007,0.881785702,1,1,12,1,1,1,6,2,6,10,0,10,10,10,5,0,5,5,5,-1,3,0,0,-1,1,35,60,225,0,35,-,-,-,-,-,-,1,0,0,0,0,0,-,-,-,-,1,2,3,4,4,2,99999,1,35,3,4,1,35,1,1,2,170,174,178,181,185,189,193,196,200,30,39,48,56,65,74,83,91,100,-,-,-,-,0,0,7,45,2,-99,-99,-99,-99,16,0,-99,3,0,0,0,-,-1,-1,-1,-1,-1,-,320,54,-,150114_1400,2,subjects,5,23,6,0,0,0,11,2,3,0,0,0,0,0,0,0,0,0,0,0,0,0,0,0,0,0,0,2,6,3,4,1,5,0.265331642,0.972825821,0.409319675,0.483547361,0.235033133,0.950882582,1,1,11,2,1,1,6,2,6,10,0,10,10,10,5,0,5,5,5,-1,3,0,0,-1,8,35,60,3,0,35,-,-,-,-,-,-,1,0,0,0,0,0,-,-,-,-,1,2,2,2,1,3,99999,1,35,2,1,5,35,2,1,2,170,174,178,181,185,189,193,196,200,30,39,48,56,65,74,83,91,100,-,-,-,-,0,0,7,45,2,-99,-99,-99,-99,16,0,-99,3,0,0,0,-,-1,-1,-1,-1,-1,-,98,17,-,150114_1400,2,subjects,5,24,6,0,0,0,12,2,4,0,0,0,0,0,0,0,0,0,0,0,0,0,0,0,0,0,0,5,3,1,2,6,4,0.938089314,0.267671016,0.148267753,0.267485887,0.942579135,0.746768762,1,1,11,1,1,7,6,2,6,10,0,10,10,10,5,0,5,5,5,-1,3,0,0,-1,2,35,60,225,0,35,-,-,-,-,-,-,1,0,0,0,0,0,-,-,-,-,1,2,2,3,4,2,99999,1,35,2,4,3,-1,3,4,5,200,188,175,163,150,138,125,113,100,100,113,125,138,150,163,175,188,200,-,-,-,-,0,0,7,45,2,-99,-99,-99,-99,16,0,-99,3,0,0,0,-,-1,-1,-1,-1,-1,-,284,48,-,150114_1400,2,subjects,6,1,1,0,0,1,1,1,1,170,200,170,126,150,170,170,100,170,136,150,170,1,9,9,4,5,9,3,2,4,5,1,6,0.266910849,0.19756396,0.419696373,0.483933796,0.10351486,0.802240538,1,7,2,2,1,3,6,2,8,10,0,10,10,0,5,0,5,5,0,-1,1,0,0,-1,6,35,45,225,0,35,-,-,-,-,-,-,1,0,0,0,0,0,-,-,-,-,2,3,3,4,4,1,99999,2,35,3,4,1,30,1,1,6,200,196,193,189,185,181,178,174,170,100,109,118,126,135,144,153,161,170,9,0,99999,-,164.3333333,149.3333333,7,41.74395206,2,-99,-99,-99,-99,16,0,-99,4,73,153,73,10,5,4,6,6,3,99999,373,63,0,170150114_1400,2,subjects,6,2,1,0,0,1,2,1,2,170,185,135,153,150,196,153,65,185,73,150,109,2,5,5,7,5,2,3,1,5,6,4,2,0.533355359,0.297001419,0.77425146,0.837717525,0.645880804,0.368330657,1,7,2,1,1,6,6,2,5,10,0,10,10,0,5,0,5,5,0,-1,1,0,0,-1,7,40,45,145,0,30,-,-,-,-,-,-,1,0,0,0,0,0,-,-,-,-,2,3,1,3,3,2,99999,2,35,1,3,2,35,5,2,2,170,174,178,181,185,189,193,196,200,30,39,48,56,65,74,83,91,100,5,0,99999,-,164.8333333,122.5,7,34.88646942,2,-99,-99,-99,-99,16,0,-99,4,153,0,0,21,5,4,4,6,5,99999,378,63,0,65150114_1400,2,subjects,6,3,1,0,0,1,3,1,3,170,200,170,126,150,170,170,100,170,136,150,170,1,9,9,4,5,9,4,3,1,6,5,2,0.750155403,0.680160141,0.185523692,0.861860951,0.844295922,0.612442563,1,7,1,2,1,3,6,2,6,10,0,10,10,10,5,0,5,5,0,-1,2,0,0,-1,7,35,55,100,0,35,-,-,-,-,-,-,1,0,0,0,0,0,-,-,-,-,3,1,3,1,2,2,99999,2,30,1,3,2,50,4,3,2,170,174,178,181,185,189,193,196,200,30,39,48,56,65,74,83,91,100,9,0,99999,-,164.3333333,149.3333333,7,41.74395206,2,-99,-99,-99,-99,16,0,-99,4,115,135,115,11,5,5,6,6,5,99999,320,54,0,100150114_1400,2,subjects,6,4,1,0,0,1,4,1,4,170,200,170,135,150,200,170,100,170,115,150,100,1,9,9,5,5,1,3,5,4,2,1,6,0.435774142,0.675609915,0.607023972,0.380435473,0.322559965,0.952510128,1,7,1,1,1,7,6,2,6,10,0,10,10,10,5,0,5,5,0,-1,1,0,0,-1,3,35,55,150,0,35,-,-,-,-,-,-,1,0,0,0,0,0,-,-,-,-,2,3,2,5,1,4,99999,2,35,2,1,5,30,1,4,6,200,196,193,189,185,181,178,174,170,100,109,118,126,135,144,153,161,170,1,0,99999,-,170.8333333,134.1666667,7,36.817477,2,-99,-99,-99,-99,16,0,-99,4,135,0,0,13,6,6,6,6,6,99999,370,62,16,100150114_1400,2,subjects,6,5,2,0,0,1,5,1,1,170,200,170,135,200,200,170,100,170,115,100,100,1,9,9,5,1,1,2,4,1,5,3,6,0.504045684,0.844850914,0.32215032,0.944765389,0.671891913,0.963290923,1,7,4,2,1,4,6,2,6,10,10,10,10,10,5,5,0,5,5,-1,2,0,0,-1,3,35,70,150,0,35,-,-,-,-,-,-,1,0,0,0,0,0,-,-,-,-,3,1,5,1,4,4,99999,2,30,2,1,2,20,4,3,6,200,196,193,189,185,181,178,174,170,100,109,118,126,135,144,153,161,170,1,0,99999,-,179.1666667,125.8333333,7,33.1868553,2,-99,-99,-99,-99,16,0,-99,5,100,200,100,11,6,5,6,4,5,99999,340,57,0,100150114_1400,2,subjects,6,6,2,0,0,1,6,1,2,170,200,170,144,200,193,170,100,170,94,100,118,1,9,9,6,1,3,2,1,5,4,3,6,0.241046885,0.028515956,0.702853529,0.506116517,0.487376163,0.97584756,1,7,4,1,1,4,6,2,6,10,10,10,10,10,5,5,0,5,5,-1,1,0,0,-1,1,35,70,150,0,35,-,-,-,-,-,-,1,0,0,0,0,0,-,-,-,-,2,3,5,6,3,2,99999,2,35,5,3,4,35,4,2,6,200,196,193,189,185,181,178,174,170,100,109,118,126,135,144,153,161,170,3,0,99999,-,179.5,125.3333333,7,32.99996353,2,-99,-99,-99,-99,16,0,-99,5,200,0,0,24,5,5,5,4,3,99999,455,76,0,118150114_1400,2,subjects,6,7,2,0,0,1,7,1,3,170,189,170,135,188,189,170,74,170,115,113,126,1,6,9,5,2,4,5,2,6,3,4,1,0.518436861,0.473659464,0.794617813,0.488512041,0.491460384,0.240339057,1,7,3,2,1,4,0,2,6,10,10,0,10,10,5,5,0,5,5,-1,1,0,0,-1,2,25,60,165,0,45,-,-,-,-,-,-,1,0,0,0,0,0,-,-,-,-,2,3,4,5,3,2,99999,2,35,4,3,4,35,4,3,1,170,170,170,170,170,170,170,170,170,170,153,135,118,100,83,65,48,30,1,0,99999,-,173.5,128,7,34.74528106,2,-99,-99,-99,-99,16,0,-99,5,100,200,100,-2,5,5,6,5,4,99999,360,60,0,170150114_1400,2,subjects,6,8,2,0,0,1,8,1,4,170,200,170,170,200,200,170,100,170,30,100,100,1,9,9,9,1,1,5,4,6,3,1,2,0.770024395,0.697364611,0.838190853,0.451496528,0.136785417,0.385640675,1,7,3,1,1,4,6,2,6,10,10,10,10,10,5,5,0,5,5,-1,1,0,0,-1,4,35,70,225,0,35,-,-,-,-,-,-,1,0,0,0,0,0,-,-,-,-,2,3,3,5,1,1,99999,2,35,3,1,5,30,2,4,2,170,174,178,181,185,189,193,196,200,30,39,48,56,65,74,83,91,100,9,0,99999,-,185,111.6666667,7,28.44292862,2,-99,-99,-99,-99,16,0,-99,5,200,0,0,24,5,4,5,6,4,99999,525,88,0,100150114_1400,2,subjects,6,9,3,0,0,1,9,1,1,170,200,170,153,188,193,170,100,170,73,113,118,1,9,9,7,2,3,4,6,2,5,3,1,0.406732002,0.978994662,0.141575011,0.672785599,0.27499856,0.081563216,1,7,6,2,1,7,6,2,3,10,0,10,10,0,0,0,5,5,0,-1,2,0,0,-1,4,35,40,225,0,35,-,-,-,-,-,-,1,0,0,0,0,0,-,-,-,-,3,1,5,2,1,4,99999,2,30,3,1,5,30,3,1,1,170,170,170,170,170,170,170,170,170,170,153,135,118,100,83,65,48,30,1,0,99999,-,179,124,7,32.73522627,2,-99,-99,-99,-99,16,0,-99,1,170,170,170,4,6,6,6,5,6,99999,465,78,0,170150114_1400,2,subjects,6,10,3,0,0,1,10,1,2,170,200,170,170,200,170,170,100,170,30,100,170,1,9,9,9,1,9,3,4,5,2,1,6,0.156415885,0.251895784,0.335141039,0.134244127,0.025281335,0.800014172,1,7,6,1,1,7,6,2,6,10,0,10,10,10,0,0,5,5,0,-1,3,0,0,-1,7,35,50,225,0,35,-,-,-,-,-,-,1,0,0,0,0,0,-,-,-,-,1,2,1,1,2,3,99999,2,35,1,3,1,35,3,1,6,200,196,193,189,185,181,178,174,170,100,109,118,126,135,144,153,161,170,9,0,99999,-,180,123.3333333,7,32.39139321,2,-99,-99,-99,-99,16,0,-99,1,170,0,0,22,6,4,5,5,5,99999,480,80,0,170150114_1400,2,subjects,6,11,3,0,0,1,11,1,3,170,200,170,170,200,200,170,100,170,30,100,100,1,9,9,9,1,1,6,3,1,4,2,5,0.974667718,0.489678425,0.378533794,0.50756404,0.451210297,0.781440637,1,7,5,2,1,7,6,2,6,10,0,10,10,10,0,0,5,5,0,-1,1,0,0,-1,5,70,50,149,0,0,-,-,-,-,-,-,1,0,0,0,0,0,-,-,-,-,2,3,4,6,2,3,99999,2,35,4,2,4,35,5,3,5,200,188,175,163,150,138,125,113,100,100,113,125,138,150,163,175,188,200,1,0,99999,-,185,111.6666667,7,28.44292862,2,-99,-99,-99,-99,16,0,-99,1,170,170,170,24,4,6,3,3,1,99999,404,68,0,100150114_1400,2,subjects,6,12,3,0,0,1,12,1,4,170,200,170,126,150,170,170,100,170,136,150,170,1,9,9,4,5,9,1,6,3,2,4,5,0.031266188,0.999829642,0.490826146,0.315027565,0.581612494,0.685782762,1,7,5,1,0,7,6,2,8,0,0,10,10,0,0,0,5,5,0,-1,2,0,0,-1,6,35,30,225,0,35,-,-,-,-,-,-,1,0,0,0,0,0,-,-,-,-,3,1,4,1,1,1,99999,2,30,3,4,4,35,5,3,5,200,188,175,163,150,138,125,113,100,100,113,125,138,150,163,175,188,200,5,0,99999,-,164.3333333,149.3333333,7,41.74395206,2,-99,-99,-99,-99,16,0,-99,1,170,0,0,9,6,6,6,5,6,99999,460,77,0,150150114_1400,2,subjects,6,13,4,0,0,1,1,2,1,170,200,170,126,150,170,170,100,170,136,150,170,1,9,9,4,5,9,6,5,3,4,2,1,0.903393535,0.495805267,0.175230517,0.350739362,0.096132407,0.069940412,1,7,8,2,1,3,6,2,6,10,0,10,10,10,5,0,5,5,5,-1,3,0,0,-1,6,35,60,225,0,35,-,-,-,-,-,-,1,0,0,0,0,0,-,-,-,-,1,2,1,3,1,4,99999,2,35,3,4,4,35,4,2,1,170,170,170,170,170,170,170,170,170,170,153,135,118,100,83,65,48,30,1,0,99999,-,164.3333333,149.3333333,7,41.74395206,2,-99,-99,-99,-99,16,0,-99,4,30,170,30,13,6,6,6,6,6,99999,350,59,2,170150114_1400,2,subjects,6,14,4,0,0,1,2,2,2,170,200,170,170,200,196,170,100,170,30,100,109,1,9,9,9,1,2,6,2,4,3,5,1,0.715437064,0.125634065,0.161188569,0.135701364,0.330633915,0.09929364,1,7,8,1,1,7,6,2,6,10,0,10,10,10,5,0,5,5,5,-1,2,0,0,-1,5,35,60,15,0,35,-,-,-,-,-,-,1,0,0,0,0,0,-,-,-,-,3,1,6,3,3,3,99999,2,30,4,2,1,35,1,1,1,170,170,170,170,170,170,170,170,170,170,153,135,118,100,83,65,48,30,1,0,99999,-,184.3333333,113.1666667,7,28.95782938,2,-99,-99,-99,-99,16,0,-99,4,170,0,0,6,6,5,6,6,4,99999,280,47,0,170150114_1400,2,subjects,6,15,4,0,0,1,3,2,3,170,200,153,135,200,174,170,100,178,115,100,161,1,9,7,5,1,8,4,6,3,2,5,1,0.57691148,0.828206297,0.531729722,0.421869877,0.62881476,0.302141735,1,7,7,2,1,7,6,2,6,10,0,10,10,10,5,0,5,5,5,-1,2,0,0,-1,2,35,60,250,0,35,-,-,-,-,-,-,1,0,0,0,0,0,-,-,-,-,3,1,5,2,2,3,99999,2,30,4,3,3,30,4,3,1,170,170,170,170,170,170,170,170,170,170,153,135,118,100,83,65,48,30,1,0,99999,-,172,137.3333333,7,37.38606188,2,-99,-99,-99,-99,16,0,-99,4,115,135,115,16,6,1,6,6,2,99999,455,76,0,170150114_1400,2,subjects,6,16,4,0,0,1,4,2,4,170,200,170,135,150,170,170,100,170,115,150,170,1,9,9,5,5,9,2,6,1,4,5,3,0.367030414,0.732824235,0.293749944,0.430487478,0.546740325,0.414086199,1,7,7,1,1,3,6,2,6,10,0,10,10,10,5,0,5,5,5,-1,1,0,0,-1,8,35,60,300,0,35,-,-,-,-,-,-,1,0,0,0,0,0,-,-,-,-,2,3,6,6,1,4,99999,2,30,6,1,5,1,1,4,3,100,109,118,126,135,144,153,161,170,200,196,193,189,185,181,178,174,170,9,0,99999,-,165.8333333,145.8333333,7,40.62920296,2,-99,-99,-99,-99,16,0,-99,4,135,0,0,22,5,6,6,6,5,99999,496,83,14,170150114_1400,2,subjects,6,17,5,0,0,1,5,2,1,170,200,170,135,175,178,170,100,170,115,125,153,1,9,9,5,3,7,4,1,2,3,6,5,0.651587799,0.064641547,0.151236013,0.519284148,0.840019003,0.82474053,1,7,10,2,1,6,6,2,6,10,0,10,10,10,5,0,5,5,5,-1,3,0,0,-1,4,35,60,100,0,35,-,-,-,-,-,-,1,0,0,0,0,0,-,-,-,-,1,2,2,3,4,1,99999,2,35,3,1,3,35,2,4,5,200,188,175,163,150,138,125,113,100,100,113,125,138,150,163,175,188,200,3,0,99999,-,171.3333333,138.8333333,7,37.87950118,2,-99,-99,-99,-99,16,0,-99,3,170,170,170,24,6,4,6,5,6,99999,365,61,0,125150114_1400,2,subjects,6,18,5,0,0,1,6,2,2,170,200,170,144,200,170,170,100,170,94,100,170,1,9,9,6,1,9,1,3,4,6,2,5,0.036288978,0.210508225,0.832966955,0.908854644,0.099857944,0.879628858,1,7,10,1,1,7,6,2,6,10,0,10,10,10,5,0,5,5,5,-1,3,0,0,-1,2,35,60,60,0,35,-,-,-,-,-,-,1,0,0,0,0,0,-,-,-,-,1,2,2,4,3,3,99999,2,35,4,3,4,30,6,1,5,200,188,175,163,150,138,125,113,100,100,113,125,138,150,163,175,188,200,1,0,99999,-,175.6666667,134,7,35.88390771,2,-99,-99,-99,-99,16,0,-99,3,170,0,0,12,6,6,6,6,4,99999,320,54,0,100150114_1400,2,subjects,6,19,5,0,0,1,7,2,3,170,200,170,170,200,200,153,100,170,30,100,100,2,9,9,9,1,1,1,3,2,6,5,4,0.080259917,0.284021443,0.174073397,0.964212488,0.900801453,0.330014893,1,7,9,2,1,7,6,2,6,10,0,10,10,10,5,0,5,5,5,-1,2,0,0,-1,1,35,60,45,0,35,-,-,-,-,-,-,1,0,0,0,0,0,-,-,-,-,3,1,6,2,2,2,99999,2,30,5,3,3,35,1,3,4,100,109,118,126,135,144,153,161,170,200,179,158,136,115,94,73,51,30,9,0,99999,-,185,108.8333333,7,27.65266541,2,-99,-99,-99,-99,16,0,-99,3,170,170,170,21,6,6,5,5,5,99999,310,52,2,30150114_1400,2,subjects,6,20,5,0,0,1,8,2,4,170,200,170,170,200,200,170,100,170,30,100,100,1,9,9,9,1,1,6,2,3,5,4,1,0.608667795,0.030547197,0.096271272,0.544078659,0.236138284,0.017472222,1,7,9,1,1,7,6,2,6,10,0,10,10,10,5,0,5,5,5,-1,3,0,0,-1,3,35,60,225,0,35,-,-,-,-,-,-,1,0,0,0,0,0,-,-,-,-,1,2,1,2,4,1,99999,2,35,2,1,5,35,1,2,1,170,170,170,170,170,170,170,170,170,170,153,135,118,100,83,65,48,30,1,0,99999,-,185,111.6666667,7,28.44292862,2,-99,-99,-99,-99,16,0,-99,3,170,0,0,17,5,5,5,4,4,99999,490,82,25,170150114_1400,2,subjects,6,21,6,0,0,1,9,2,1,170,200,170,100,150,170,170,100,170,200,150,170,1,9,9,1,5,9,2,6,1,3,5,4,0.524018594,0.801215939,0.153995984,0.548390624,0.776197499,0.655627157,1,7,12,2,1,2,6,2,6,10,0,10,10,10,5,0,5,5,5,-1,2,0,0,-1,8,40,60,225,0,30,-,-,-,-,-,-,1,0,0,0,0,0,-,-,-,-,3,1,6,4,4,4,99999,2,30,6,1,2,30,6,1,4,100,109,118,126,135,144,153,161,170,200,179,158,136,115,94,73,51,30,1,0,99999,-,160,160,7,45,2,-99,-99,-99,-99,16,0,-99,1,170,170,170,24,6,5,6,6,4,99999,485,81,0,200150114_1400,2,subjects,6,22,6,0,0,1,10,2,2,170,200,170,135,150,170,170,100,170,115,150,170,1,9,9,5,5,9,4,5,6,3,1,2,0.660693998,0.663240332,0.787216112,0.562179223,0.12113634,0.180506705,1,7,12,1,1,1,6,2,6,10,0,10,10,10,5,0,5,5,5,-1,3,0,0,-1,1,35,60,225,0,35,-,-,-,-,-,-,1,0,0,0,0,0,-,-,-,-,1,2,2,5,2,3,99999,2,35,5,3,5,35,3,4,2,170,174,178,181,185,189,193,196,200,30,39,48,56,65,74,83,91,100,9,0,99999,-,165.8333333,145.8333333,7,40.62920296,2,-99,-99,-99,-99,16,0,-99,1,170,0,0,-2,6,6,6,6,6,99999,490,82,22,100150114_1400,2,subjects,6,23,6,0,0,1,11,2,3,170,200,170,170,200,200,170,100,170,30,100,100,1,9,9,9,1,1,2,4,3,6,5,1,0.229661049,0.551358299,0.471405342,0.928430755,0.885556261,0.122842862,1,7,11,2,1,1,6,2,6,10,0,10,10,10,5,0,5,5,5,-1,3,0,0,-1,5,35,60,3,0,35,-,-,-,-,-,-,1,0,0,0,0,0,-,-,-,-,1,2,3,4,3,2,99999,2,35,4,2,5,35,2,1,1,170,170,170,170,170,170,170,170,170,170,153,135,118,100,83,65,48,30,1,0,99999,-,185,111.6666667,7,28.44292862,2,-99,-99,-99,-99,16,0,-99,1,170,170,170,0,5,6,6,6,6,99999,268,45,0,170150114_1400,2,subjects,6,24,6,0,0,1,12,2,4,170,200,170,170,200,189,170,100,170,30,100,126,1,9,9,9,1,4,6,2,4,3,5,1,0.909590402,0.696672533,0.823664582,0.818342688,0.860245334,0.331179523,1,7,11,1,1,7,6,2,6,10,0,10,10,10,5,0,5,5,5,-1,3,0,0,-1,8,35,60,225,0,35,-,-,-,-,-,-,1,0,0,0,0,0,-,-,-,-,1,2,4,6,4,1,99999,2,40,6,1,1,35,1,3,1,170,170,170,170,170,170,170,170,170,170,153,135,118,100,83,65,48,30,1,0,99999,-,183.1666667,116,7,29.91364599,2,-99,-99,-99,-99,16,0,-99,1,170,0,0,7,6,4,6,6,4,99999,490,82,0,170141218_0927,2,subjects,1,1,1,0,0,0,1,1,1,0,0,0,0,0,0,0,0,0,0,0,0,0,0,0,0,0,0,6,4,1,3,5,2,0.743351068,0.419529849,0.099070604,0.393848504,0.478691601,0.28490118,1,1,2,2,1,2,6,2,6,10,0,10,10,10,0,0,5,5,5,-1,1,75,50,-1,2,35,55,125,0,35,28,0,2,3,2,2,1,0,0,4,0,0,99999,99999,16,0,2,3,4,6,2,2,99999,1,30,1,1,1,30,1,1,6,200,196,193,189,185,181,178,174,170,100,109,118,126,135,144,153,161,170,9,0,0,0,0,0,7,45,2,-99,-99,-99,-99,16,0,-99,2,0,0,0,0,-1,-1,-1,-1,-1,0,210,35,0,141218_0927,2,subjects,1,2,1,0,0,0,2,1,2,0,0,0,0,0,0,0,0,0,0,0,0,0,0,0,0,0,0,2,4,5,1,6,3,0.228743692,0.364822943,0.369737195,0.014137962,0.966463315,0.348939995,1,1,2,1,1,4,6,2,6,10,10,10,10,10,0,0,5,5,5,-1,1,150,225,-1,1,35,65,225,0,35,28,10,1,60,17,3,1,0,0,4,0,0,99999,99999,22,0,2,3,2,4,1,1,99999,1,30,1,2,5,0,0,0,2,170,174,178,181,185,189,193,196,200,30,39,48,56,65,74,83,91,100,-,-,-,-,0,0,7,45,2,-99,-99,-99,-99,16,0,-99,2,0,0,0,-,-1,-1,-1,-1,-1,-,290,49,-,141218_0927,2,subjects,1,3,1,0,0,0,3,1,3,0,0,0,0,0,0,0,0,0,0,0,0,0,0,0,0,0,0,5,4,3,2,6,1,0.616733619,0.501403711,0.31887219,0.173036755,0.777577119,0.079641519,1,1,1,2,0,2,6,2,6,0,0,10,10,10,0,0,5,5,5,-1,1,90,105,-1,4,35,45,165,0,35,25,0,2,1,9,4,0,1,1,4,150,150,99999,99999,10,0,2,3,3,6,3,4,99999,1,30,1,3,2,0,0,0,5,200,188,175,163,150,138,125,113,100,100,113,125,138,150,163,175,188,200,-,-,-,-,0,0,7,45,2,-99,-99,-99,-99,16,0,-99,2,0,0,0,-,-1,-1,-1,-1,-1,-,210,35,-,141218_0927,2,subjects,1,4,1,0,0,0,4,1,4,0,0,0,0,0,0,0,0,0,0,0,0,0,0,0,0,0,0,5,6,3,2,4,1,0.743067007,0.805261692,0.535004552,0.125085909,0.738644246,0.065258955,1,1,1,1,1,0,6,2,6,10,0,10,10,10,0,0,5,5,5,-1,1,100,150,-1,6,35,55,200,0,35,28,3,0,73,59,14,0,1,1,4,100,125,99999,99999,-5,0,2,3,2,5,3,3,99999,1,30,1,4,4,0,0,0,5,200,188,175,163,150,138,125,113,100,100,113,125,138,150,163,175,188,200,-,-,-,-,0,0,7,45,2,-99,-99,-99,-99,16,0,-99,2,0,0,0,-,-1,-1,-1,-1,-1,-,255,43,-,141218_0927,2,subjects,1,5,2,0,0,0,5,1,1,0,0,0,0,0,0,0,0,0,0,0,0,0,0,0,0,0,0,2,5,3,1,6,4,0.205453993,0.821509451,0.569180604,0.109343908,0.941346643,0.678192258,1,1,4,2,1,4,6,2,6,10,10,10,10,10,5,5,5,5,0,-1,2,75,75,-1,1,35,70,150,0,35,28,34,4,51,14,1,0,1,1,6,90,0,99999,99999,-45,0,3,1,4,1,1,2,99999,1,35,1,2,3,0,0,0,2,170,174,178,181,185,189,193,196,200,30,39,48,56,65,74,83,91,100,-,-,-,-,0,0,7,45,2,-99,-99,-99,-99,16,0,-99,3,0,0,0,-,-1,-1,-1,-1,-1,-,220,37,-,141218_0927,2,subjects,1,6,2,0,0,0,6,1,2,0,0,0,0,0,0,0,0,0,0,0,0,0,0,0,0,0,0,3,5,6,4,2,1,0.67024117,0.851203652,0.913641291,0.774369176,0.387350833,0.213036721,1,1,4,1,1,4,6,2,6,10,10,10,10,10,5,5,5,5,0,-1,1,150,225,-1,5,35,70,225,0,35,28,51,2,69,22,48,1,0,0,4,0,0,99999,99999,24,0,2,3,5,6,2,1,99999,1,30,2,2,1,30,2,2,3,100,109,118,126,135,144,153,161,170,200,196,193,189,185,181,178,174,170,-,-,-,-,0,0,7,45,2,-99,-99,-99,-99,16,0,-99,3,0,0,0,-,-1,-1,-1,-1,-1,-,325,55,-,141218_0927,2,subjects,1,7,2,0,0,0,7,1,3,0,0,0,0,0,0,0,0,0,0,0,0,0,0,0,0,0,0,2,6,1,4,3,5,0.309392668,0.737220248,0.000437137,0.44193956,0.334131783,0.61580651,1,1,3,2,1,4,6,2,6,10,10,10,10,10,5,5,5,5,0,-1,2,150,100,-1,6,35,70,100,0,35,28,49,2,21,13,15,1,0,0,6,0,0,99999,99999,14,0,3,1,5,1,3,4,99999,1,35,1,4,4,0,0,0,2,170,174,178,181,185,189,193,196,200,30,39,48,56,65,74,83,91,100,-,-,-,-,0,0,7,45,2,-99,-99,-99,-99,16,0,-99,3,0,0,0,-,-1,-1,-1,-1,-1,-,170,29,-,141218_0927,2,subjects,1,8,2,0,0,0,8,1,4,0,0,0,0,0,0,0,0,0,0,0,0,0,0,0,0,0,0,1,5,4,6,3,2,0.004062078,0.878292224,0.822747286,0.962578654,0.622410377,0.141652253,1,1,3,1,1,4,6,2,7,10,10,10,10,0,5,5,5,5,0,-1,1,40,0,-1,8,30,60,110,0,40,28,1,4,76,54,7,0,1,1,4,35,25,99999,99999,17,0,2,3,4,4,3,4,99999,1,30,2,4,1,30,2,4,1,170,170,170,170,170,170,170,170,170,170,153,135,118,100,83,65,48,30,-,-,-,-,0,0,7,45,2,-99,-99,-99,-99,16,0,-99,3,0,0,0,-,-1,-1,-1,-1,-1,-,200,34,-,141218_0927,2,subjects,1,9,3,0,0,0,9,1,1,0,0,0,0,0,0,0,0,0,0,0,0,0,0,0,0,0,0,1,2,3,4,5,6,0.33432501,0.626116597,0.727185415,0.789128238,0.807259167,0.900247718,1,1,6,2,5,2,6,1,8,0,0,10,0,0,0,0,0,0,0,-1,1,1,0,-1,7,35,10,149,0,35,28,8,4,5,2,2,1,0,0,4,0,0,99999,99999,22,0,2,3,3,5,2,1,99999,1,30,3,1,5,0,0,0,1,170,170,170,170,170,170,170,170,170,170,153,135,118,100,83,65,48,30,-,-,-,-,0,0,7,45,2,-99,-99,-99,-99,16,0,-99,2,0,0,0,-,-1,-1,-1,-1,-1,-,159,27,-,141218_0927,2,subjects,1,10,3,0,0,0,10,1,2,0,0,0,0,0,0,0,0,0,0,0,0,0,0,0,0,0,0,2,3,6,5,1,4,0.453606419,0.457406207,0.836566495,0.763092141,0.274231141,0.495232036,1,1,6,1,5,0,8,2,8,0,0,0,10,0,0,0,0,0,0,-1,2,60,0,-1,7,25,10,90,0,45,28,14,0,5,1,3,0,1,1,4,60,60,99999,99999,13,0,3,1,5,3,1,1,99999,1,35,3,1,2,0,0,0,2,170,174,178,181,185,189,193,196,200,30,39,48,56,65,74,83,91,100,-,-,-,-,0,0,7,45,2,-99,-99,-99,-99,16,0,-99,2,0,0,0,-,-1,-1,-1,-1,-1,-,100,17,-,141218_0927,2,subjects,1,11,3,0,0,0,11,1,3,0,0,0,0,0,0,0,0,0,0,0,0,0,0,0,0,0,0,5,2,6,3,4,1,0.50816548,0.271352163,0.910374235,0.347907076,0.377283517,0.00278056,1,1,5,2,5,2,6,2,8,0,0,10,10,0,0,0,0,0,0,-1,2,25,0,-1,4,35,20,125,0,35,28,12,2,2,2,2,0,1,1,4,30,1,99999,99999,9,0,3,1,6,1,4,3,99999,1,35,1,3,5,0,0,0,5,200,188,175,163,150,138,125,113,100,100,113,125,138,150,163,175,188,200,-,-,-,-,0,0,7,45,2,-99,-99,-99,-99,16,0,-99,2,0,0,0,-,-1,-1,-1,-1,-1,-,145,25,-,141218_0927,2,subjects,1,12,3,0,0,0,12,1,4,0,0,0,0,0,0,0,0,0,0,0,0,0,0,0,0,0,0,4,3,5,2,1,6,0.749417124,0.502344276,0.805223981,0.463391307,0.173084278,0.860021857,1,1,5,1,5,2,0,6,8,0,0,0,0,0,0,0,0,0,0,-1,1,40,5,-1,3,50,0,115,0,20,24,84,1,0,84,14,0,1,1,5,20,20,99999,99999,9,0,2,3,5,6,4,3,99999,1,30,3,4,1,30,3,4,4,100,109,118,126,135,144,153,161,170,200,179,158,136,115,94,73,51,30,-,-,-,-,0,0,7,45,2,-99,-99,-99,-99,16,0,-99,2,0,0,0,-,-1,-1,-1,-1,-1,-,145,25,-,141218_0927,2,subjects,1,13,4,0,0,0,1,2,1,0,0,0,0,0,0,0,0,0,0,0,0,0,0,0,0,0,0,5,1,3,4,2,6,0.425200685,0.033256461,0.270480542,0.399445773,0.185881791,0.508707386,1,1,8,2,1,0,6,2,6,10,0,10,10,10,5,0,5,5,5,-1,3,75,50,-1,1,35,60,175,0,35,29,52,0,89,0,24,0,1,1,5,70,65,99999,99999,24,3,1,2,1,2,2,1,99999,1,35,1,2,2,0,0,0,5,200,188,175,163,150,138,125,113,100,100,113,125,138,150,163,175,188,200,-,-,-,-,0,0,7,45,2,-99,-99,-99,-99,16,0,-99,5,0,0,0,-,-1,-1,-1,-1,-1,-,235,40,-,141218_0927,2,subjects,1,14,4,0,0,0,2,2,2,0,0,0,0,0,0,0,0,0,0,0,0,0,0,0,0,0,0,3,2,5,4,6,1,0.152938448,0.09146358,0.346957184,0.271624078,0.828007555,0.02745598,1,1,8,1,1,7,6,2,6,10,0,10,10,10,5,0,5,5,5,-1,2,150,225,-1,2,35,60,225,0,35,28,36,6,85,58,9,1,0,0,5,0,0,99999,99999,26,21,3,1,6,1,2,1,99999,1,35,1,1,1,35,1,1,3,100,109,118,126,135,144,153,161,170,200,196,193,189,185,181,178,174,170,-,-,-,-,0,0,7,45,2,-99,-99,-99,-99,16,0,-99,5,0,0,0,-,-1,-1,-1,-1,-1,-,320,54,-,141218_0927,2,subjects,1,15,4,0,0,0,3,2,3,0,0,0,0,0,0,0,0,0,0,0,0,0,0,0,0,0,0,2,1,5,6,3,4,0.115265661,0.047517249,0.373762599,0.45306421,0.301809288,0.361324991,1,1,7,2,1,7,6,2,6,10,0,10,10,10,5,0,5,5,5,-1,2,90,105,-1,8,40,60,165,0,30,24,2,4,78,4,6,1,0,0,4,145,0,99999,99999,23,6,3,1,4,2,4,4,99999,1,30,2,4,4,0,0,0,2,170,174,178,181,185,189,193,196,200,30,39,48,56,65,74,83,91,100,-,-,-,-,0,0,7,45,2,-99,-99,-99,-99,16,0,-99,5,0,0,0,-,-1,-1,-1,-1,-1,-,225,38,-,141218_0927,2,subjects,1,16,4,0,0,0,4,2,4,0,0,0,0,0,0,0,0,0,0,0,0,0,0,0,0,0,0,3,5,4,6,2,1,0.259318308,0.650169519,0.489409314,0.659773025,0.179771833,0.146893778,1,1,7,1,1,0,6,2,6,10,0,10,10,10,5,0,5,5,5,-1,3,100,150,-1,8,35,60,150,0,35,28,43,0,82,2,7,0,1,1,4,150,225,99999,99999,26,20,1,2,2,4,4,3,99999,1,40,2,4,5,0,0,0,3,100,109,118,126,135,144,153,161,170,200,196,193,189,185,181,178,174,170,-,-,-,-,0,0,7,45,2,-99,-99,-99,-99,16,0,-99,5,0,0,0,-,-1,-1,-1,-1,-1,-,210,35,-,141218_0927,2,subjects,1,17,5,0,0,0,5,2,1,0,0,0,0,0,0,0,0,0,0,0,0,0,0,0,0,0,0,4,1,5,6,3,2,0.635346832,0.00306431,0.662512067,0.780992241,0.452663198,0.362804139,1,1,10,2,1,8,6,2,6,10,0,10,10,10,0,0,5,5,0,-1,3,75,75,-1,7,35,50,150,0,35,28,30,1,82,5,7,1,0,0,4,0,0,99999,99999,21,12,1,2,3,3,1,2,99999,1,35,3,1,1,35,3,1,4,100,109,118,126,135,144,153,161,170,200,179,158,136,115,94,73,51,30,-,-,-,-,0,0,7,45,2,-99,-99,-99,-99,16,0,-99,6,0,0,0,-,-1,-1,-1,-1,-1,-,235,40,-,141218_0927,2,subjects,1,18,5,0,0,0,6,2,2,0,0,0,0,0,0,0,0,0,0,0,0,0,0,0,0,0,0,2,3,4,5,1,6,0.559288432,0.604827413,0.676806775,0.731497934,0.269956146,0.960671331,1,1,10,1,1,3,6,2,6,10,0,10,10,10,0,0,5,5,0,-1,2,150,225,-1,5,35,50,225,0,35,28,24,4,93,78,7,0,1,1,4,1,1,99999,99999,25,19,3,1,6,2,1,2,99999,1,35,2,2,5,0,0,0,2,170,174,178,181,185,189,193,196,200,30,39,48,56,65,74,83,91,100,-,-,-,-,0,0,7,45,2,-99,-99,-99,-99,16,0,-99,6,0,0,0,-,-1,-1,-1,-1,-1,-,275,46,-,141218_0927,2,subjects,1,19,5,0,0,0,7,2,3,0,0,0,0,0,0,0,0,0,0,0,0,0,0,0,0,0,0,1,4,3,2,6,5,0.289621991,0.649167566,0.640756075,0.345460884,0.944540789,0.785452864,1,1,9,2,0,0,6,2,3,0,0,10,10,0,0,0,5,5,0,-1,3,150,100,-1,6,0,30,350,0,70,28,0,0,68,44,4,1,0,0,6,100,0,99999,99999,22,4,1,2,1,2,4,3,99999,1,35,1,4,5,0,0,0,1,170,170,170,170,170,170,170,170,170,170,153,135,118,100,83,65,48,30,-,-,-,-,0,0,7,45,2,-99,-99,-99,-99,16,0,-99,6,0,0,0,-,-1,-1,-1,-1,-1,-,380,64,-,141218_0927,2,subjects,1,20,5,0,0,0,8,2,4,0,0,0,0,0,0,0,0,0,0,0,0,0,0,0,0,0,0,3,4,1,6,2,5,0.436502755,0.588586527,0.059442346,0.983117708,0.113826857,0.84030363,1,1,9,1,1,7,6,2,6,10,0,10,10,10,0,0,5,5,0,-1,2,40,0,-1,3,35,50,120,0,35,28,8,10,81,16,11,0,1,1,4,11,11,99999,99999,24,9,3,1,6,3,3,4,99999,1,50,3,4,1,50,3,4,3,100,109,118,126,135,144,153,161,170,200,196,193,189,185,181,178,174,170,-,-,-,-,0,0,7,45,2,-99,-99,-99,-99,16,0,-99,6,0,0,0,-,-1,-1,-1,-1,-1,-,220,37,-,141218_0927,2,subjects,1,21,6,0,0,0,9,2,1,0,0,0,0,0,0,0,0,0,0,0,0,0,0,0,0,0,0,4,3,2,5,1,6,0.399099334,0.322969411,0.228386351,0.46070174,0.039206553,0.608337533,1,1,12,2,1,7,6,2,6,10,0,10,10,10,5,0,0,0,0,-1,3,1,0,-1,5,35,45,3,0,35,28,55,2,15,46,7,0,1,1,4,150,230,99999,99999,22,15,1,2,2,5,2,2,99999,1,35,2,2,3,0,0,0,4,100,109,118,126,135,144,153,161,170,200,179,158,136,115,94,73,51,30,-,-,-,-,0,0,7,45,2,-99,-99,-99,-99,16,0,-99,1,0,0,0,-,-1,-1,-1,-1,-1,-,48,8,-,141218_0927,2,subjects,1,22,6,0,0,0,10,2,2,0,0,0,0,0,0,0,0,0,0,0,0,0,0,0,0,0,0,5,6,4,1,2,3,0.523710011,0.843733882,0.350869502,0.087156193,0.274198433,0.283262061,1,1,12,1,1,7,6,2,5,10,0,10,10,0,5,0,0,0,0,-1,3,60,0,-1,2,35,35,180,0,35,28,16,0,49,86,1,0,1,1,4,9,1,99999,99999,27,6,1,2,1,4,1,2,99999,1,35,1,1,5,0,0,0,5,200,188,175,163,150,138,125,113,100,100,113,125,138,150,163,175,188,200,-,-,-,-,0,0,7,45,2,-99,-99,-99,-99,16,0,-99,1,0,0,0,-,-1,-1,-1,-1,-1,-,215,36,-,141218_0927,2,subjects,1,23,6,0,0,0,11,2,3,0,0,0,0,0,0,0,0,0,0,0,0,0,0,0,0,0,0,1,2,4,3,6,5,0.106285801,0.113664001,0.22087114,0.203003703,0.732870906,0.70936415,1,1,11,2,1,1,6,2,6,10,0,10,10,10,5,0,0,0,0,-1,3,25,0,-1,3,35,45,75,0,35,27,10,2,47,19,3,1,0,0,4,0,0,99999,99999,17,15,1,2,3,5,4,4,99999,1,20,3,4,2,0,0,0,1,170,170,170,170,170,170,170,170,170,170,153,135,118,100,83,65,48,30,-,-,-,-,0,0,7,45,2,-99,-99,-99,-99,16,0,-99,1,0,0,0,-,-1,-1,-1,-1,-1,-,120,20,-,141218_0927,2,subjects,1,24,6,0,0,0,12,2,4,0,0,0,0,0,0,0,0,0,0,0,0,0,0,0,0,0,0,2,5,6,3,4,1,0.038178749,0.622174717,0.890466002,0.217697184,0.260038449,0.013600385,1,1,11,1,1,1,0,3,6,10,0,0,0,10,5,0,0,0,0,-1,3,40,5,-1,4,36,25,115,0,34,23,17,3,0,1,13,0,1,1,4,50,25,99999,99999,22,1,1,2,1,3,3,3,99999,1,35,1,3,2,0,0,0,2,170,174,178,181,185,189,193,196,200,30,39,48,56,65,74,83,91,100,-,-,-,-,0,0,7,45,2,-99,-99,-99,-99,16,0,-99,1,0,0,0,-,-1,-1,-1,-1,-1,-,140,24,-,141218_0927,2,subjects,2,1,1,0,0,0,1,1,1,0,0,0,0,0,0,0,0,0,0,0,0,0,0,0,0,0,0,1,5,6,3,4,2,0.391773064,0.8723577,0.91701692,0.485111657,0.501861188,0.462416167,1,1,2,2,1,2,6,2,6,10,0,10,10,10,0,0,5,5,5,-1,1,0,0,-1,7,35,55,125,0,35,-,-,-,-,-,-,1,0,0,0,0,0,-,-,-,-,2,3,5,5,1,3,99999,2,35,5,1,1,30,1,1,1,170,170,170,170,170,170,170,170,170,170,153,135,118,100,83,65,48,30,-,-,-,-,0,0,7,45,2,-99,-99,-99,-99,16,0,-99,3,0,0,0,-,-1,-1,-1,-1,-1,-,210,35,-,141218_0927,2,subjects,2,2,1,0,0,0,2,1,2,0,0,0,0,0,0,0,0,0,0,0,0,0,0,0,0,0,0,1,3,6,5,2,4,0.29682055,0.644985949,0.949029255,0.887510667,0.34093129,0.760057181,1,1,2,1,1,4,6,2,6,10,10,10,10,10,0,0,5,5,5,-1,1,0,0,-1,4,35,65,225,0,35,-,-,-,-,-,-,1,0,0,0,0,0,-,-,-,-,2,3,4,5,4,2,99999,2,35,4,4,5,0,0,0,1,170,170,170,170,170,170,170,170,170,170,153,135,118,100,83,65,48,30,-,-,-,-,0,0,7,45,2,-99,-99,-99,-99,16,0,-99,3,0,0,0,-,-1,-1,-1,-1,-1,-,290,49,-,141218_0927,2,subjects,2,3,1,0,0,0,3,1,3,0,0,0,0,0,0,0,0,0,0,0,0,0,0,0,0,0,0,2,1,5,6,3,4,0.285776117,0.081698628,0.715871065,0.95644455,0.338250796,0.693703224,1,1,1,2,0,2,6,2,6,0,0,10,10,10,0,0,5,5,5,-1,1,0,0,-1,5,35,45,165,0,35,-,-,-,-,-,-,1,0,0,0,0,0,-,-,-,-,2,3,2,4,1,3,99999,2,35,2,1,2,35,2,1,2,170,174,178,181,185,189,193,196,200,30,39,48,56,65,74,83,91,100,-,-,-,-,0,0,7,45,2,-99,-99,-99,-99,16,0,-99,3,0,0,0,-,-1,-1,-1,-1,-1,-,245,41,-,141218_0927,2,subjects,2,4,1,0,0,0,4,1,4,0,0,0,0,0,0,0,0,0,0,0,0,0,0,0,0,0,0,5,3,2,6,1,4,0.824366581,0.529892321,0.495378192,0.917504336,0.442072797,0.82126981,1,1,1,1,1,0,6,2,6,10,0,10,10,10,0,0,5,5,5,-1,1,0,0,-1,3,35,55,200,0,35,-,-,-,-,-,-,1,0,0,0,0,0,-,-,-,-,2,3,3,4,4,2,99999,2,10,3,4,2,10,3,4,5,200,188,175,163,150,138,125,113,100,100,113,125,138,150,163,175,188,200,-,-,-,-,0,0,7,45,2,-99,-99,-99,-99,16,0,-99,3,0,0,0,-,-1,-1,-1,-1,-1,-,265,45,-,141218_0927,2,subjects,2,5,2,0,0,0,5,1,1,0,0,0,0,0,0,0,0,0,0,0,0,0,0,0,0,0,0,5,6,4,2,1,3,0.900696484,0.981120587,0.721658796,0.466205935,0.019571412,0.632592146,1,1,4,2,1,4,6,2,6,10,10,10,10,10,5,5,5,5,0,-1,2,0,0,-1,5,35,70,150,0,35,-,-,-,-,-,-,1,0,0,0,0,0,-,-,-,-,3,1,4,1,3,3,99999,2,30,2,1,2,30,2,1,5,200,188,175,163,150,138,125,113,100,100,113,125,138,150,163,175,188,200,-,-,-,-,0,0,7,45,2,-99,-99,-99,-99,16,0,-99,3,0,0,0,-,-1,-1,-1,-1,-1,-,250,42,-,141218_0927,2,subjects,2,6,2,0,0,0,6,1,2,0,0,0,0,0,0,0,0,0,0,0,0,0,0,0,0,0,0,1,3,2,4,6,5,0.10884383,0.278844669,0.247108429,0.459525621,0.658160435,0.496539593,1,1,4,1,1,4,6,2,6,10,10,10,10,10,5,5,5,5,0,-1,1,0,0,-1,8,50,70,225,0,20,-,-,-,-,-,-,1,0,0,0,0,0,-,-,-,-,2,3,2,6,4,4,99999,2,35,2,4,1,30,2,2,1,170,170,170,170,170,170,170,170,170,170,153,135,118,100,83,65,48,30,-,-,-,-,0,0,7,45,2,-99,-99,-99,-99,16,0,-99,3,0,0,0,-,-1,-1,-1,-1,-1,-,325,55,-,141218_0927,2,subjects,2,7,2,0,0,0,7,1,3,0,0,0,0,0,0,0,0,0,0,0,0,0,0,0,0,0,0,4,2,6,3,5,1,0.683348728,0.293559218,0.877417341,0.580752119,0.87459373,0.094510744,1,1,3,2,1,4,6,2,6,10,10,10,10,10,5,5,5,5,0,-1,1,0,0,-1,2,35,70,100,0,35,-,-,-,-,-,-,1,0,0,0,0,0,-,-,-,-,2,3,3,6,1,3,99999,2,20,3,1,3,0,0,0,4,100,109,118,126,135,144,153,161,170,200,179,158,136,115,94,73,51,30,-,-,-,-,0,0,7,45,2,-99,-99,-99,-99,16,0,-99,3,0,0,0,-,-1,-1,-1,-1,-1,-,170,29,-,141218_0927,2,subjects,2,8,2,0,0,0,8,1,4,0,0,0,0,0,0,0,0,0,0,0,0,0,0,0,0,0,0,3,6,2,5,1,4,0.698297035,0.966258148,0.129128191,0.919383404,0.04206697,0.90024673,1,1,3,1,1,4,6,2,7,10,10,10,10,0,5,5,5,5,0,-1,2,0,0,-1,8,35,60,110,0,35,-,-,-,-,-,-,1,0,0,0,0,0,-,-,-,-,3,1,6,2,4,2,99999,2,30,2,4,2,30,2,4,3,100,109,118,126,135,144,153,161,170,200,196,193,189,185,181,178,174,170,-,-,-,-,0,0,7,45,2,-99,-99,-99,-99,16,0,-99,3,0,0,0,-,-1,-1,-1,-1,-1,-,200,34,-,141218_0927,2,subjects,2,9,3,0,0,0,9,1,1,0,0,0,0,0,0,0,0,0,0,0,0,0,0,0,0,0,0,6,3,2,4,1,5,0.979339228,0.700867844,0.651232013,0.723728107,0.485848644,0.849776291,1,1,6,2,5,2,6,1,8,0,0,10,0,0,0,0,0,0,0,-1,2,0,0,-1,2,50,10,149,0,20,-,-,-,-,-,-,1,0,0,0,0,0,-,-,-,-,3,1,6,2,3,3,99999,2,30,3,1,2,30,3,1,6,200,196,193,189,185,181,178,174,170,100,109,118,126,135,144,153,161,170,-,-,-,-,0,0,7,45,2,-99,-99,-99,-99,16,0,-99,5,0,0,0,-,-1,-1,-1,-1,-1,-,189,32,-,141218_0927,2,subjects,2,10,3,0,0,0,10,1,2,0,0,0,0,0,0,0,0,0,0,0,0,0,0,0,0,0,0,3,4,1,2,5,6,0.285345944,0.456237243,0.26341962,0.278271854,0.716399049,0.879537997,1,1,6,1,5,0,8,2,8,0,0,0,10,0,0,0,0,0,0,-1,1,0,0,-1,6,67,10,90,0,3,-,-,-,-,-,-,1,0,0,0,0,0,-,-,-,-,2,3,5,6,4,2,99999,2,35,5,4,4,0,0,0,3,100,109,118,126,135,144,153,161,170,200,196,193,189,185,181,178,174,170,-,-,-,-,0,0,7,45,2,-99,-99,-99,-99,16,0,-99,5,0,0,0,-,-1,-1,-1,-1,-1,-,100,17,-,141218_0927,2,subjects,2,11,3,0,0,0,11,1,3,0,0,0,0,0,0,0,0,0,0,0,0,0,0,0,0,0,0,5,6,2,3,1,4,0.93724928,0.947902816,0.25644781,0.518820817,0.005812063,0.702428972,1,1,5,2,5,2,6,2,8,0,0,10,10,0,0,0,0,0,0,-1,1,0,0,-1,1,35,20,125,0,35,-,-,-,-,-,-,1,0,0,0,0,0,-,-,-,-,2,3,4,6,1,1,99999,2,35,4,1,5,0,0,0,5,200,188,175,163,150,138,125,113,100,100,113,125,138,150,163,175,188,200,-,-,-,-,0,0,7,45,2,-99,-99,-99,-99,16,0,-99,5,0,0,0,-,-1,-1,-1,-1,-1,-,145,25,-,141218_0927,2,subjects,2,12,3,0,0,0,12,1,4,0,0,0,0,0,0,0,0,0,0,0,0,0,0,0,0,0,0,4,6,1,3,5,2,0.82147734,0.936727599,0.16027223,0.542346165,0.850740171,0.357049026,1,1,5,1,5,2,0,6,8,0,0,0,0,0,0,0,0,0,0,-1,2,0,0,-1,3,60,0,115,0,10,-,-,-,-,-,-,1,0,0,0,0,0,-,-,-,-,3,1,4,1,2,4,99999,2,30,3,4,5,0,0,0,4,100,109,118,126,135,144,153,161,170,200,179,158,136,115,94,73,51,30,-,-,-,-,0,0,7,45,2,-99,-99,-99,-99,16,0,-99,5,0,0,0,-,-1,-1,-1,-1,-1,-,115,20,-,141218_0927,2,subjects,2,13,4,0,0,0,1,2,1,0,0,0,0,0,0,0,0,0,0,0,0,0,0,0,0,0,0,4,3,2,6,1,5,0.523743785,0.470098993,0.436803537,0.781011364,0.07008255,0.753247121,1,1,8,2,1,0,6,2,6,10,0,10,10,10,5,0,5,5,5,-1,2,0,0,-1,1,35,60,175,0,35,-,-,-,-,-,-,1,0,0,0,0,0,-,-,-,-,3,1,6,3,1,3,99999,2,30,4,1,3,0,0,0,4,100,109,118,126,135,144,153,161,170,200,179,158,136,115,94,73,51,30,-,-,-,-,0,0,7,45,2,-99,-99,-99,-99,16,0,-99,3,0,0,0,-,-1,-1,-1,-1,-1,-,235,40,-,141218_0927,2,subjects,2,14,4,0,0,0,2,2,2,0,0,0,0,0,0,0,0,0,0,0,0,0,0,0,0,0,0,4,2,6,3,1,5,0.152124965,0.118340448,0.809284895,0.151371577,0.080336028,0.764281762,1,1,8,1,1,7,6,2,6,10,0,10,10,10,5,0,5,5,5,-1,3,0,0,-1,3,35,60,225,0,35,-,-,-,-,-,-,1,0,0,0,0,0,-,-,-,-,1,2,1,3,4,4,99999,2,60,3,4,5,0,0,0,4,100,109,118,126,135,144,153,161,170,200,179,158,136,115,94,73,51,30,-,-,-,-,0,0,7,45,2,-99,-99,-99,-99,16,0,-99,3,0,0,0,-,-1,-1,-1,-1,-1,-,285,48,-,141218_0927,2,subjects,2,15,4,0,0,0,3,2,3,0,0,0,0,0,0,0,0,0,0,0,0,0,0,0,0,0,0,1,6,5,2,3,4,0.283577101,0.922975973,0.815666567,0.355019674,0.733602344,0.776904671,1,1,7,2,1,7,6,2,6,10,0,10,10,10,5,0,5,5,5,-1,3,0,0,-1,5,50,60,165,0,20,-,-,-,-,-,-,1,0,0,0,0,0,-,-,-,-,1,2,1,2,3,1,99999,2,35,2,1,1,30,2,4,1,170,170,170,170,170,170,170,170,170,170,153,135,118,100,83,65,48,30,-,-,-,-,0,0,7,45,2,-99,-99,-99,-99,16,0,-99,3,0,0,0,-,-1,-1,-1,-1,-1,-,255,43,-,141218_0927,2,subjects,2,16,4,0,0,0,4,2,4,0,0,0,0,0,0,0,0,0,0,0,0,0,0,0,0,0,0,3,4,6,1,2,5,0.357889319,0.478928924,0.769854116,0.143688344,0.155921046,0.690603447,1,1,7,1,1,0,6,2,6,10,0,10,10,10,5,0,5,5,5,-1,2,0,0,-1,4,35,60,150,0,35,-,-,-,-,-,-,1,0,0,0,0,0,-,-,-,-,3,1,5,1,2,2,99999,2,30,4,4,1,40,2,4,3,100,109,118,126,135,144,153,161,170,200,196,193,189,185,181,178,174,170,-,-,-,-,0,0,7,45,2,-99,-99,-99,-99,16,0,-99,3,0,0,0,-,-1,-1,-1,-1,-1,-,250,42,-,141218_0927,2,subjects,2,17,5,0,0,0,5,2,1,0,0,0,0,0,0,0,0,0,0,0,0,0,0,0,0,0,0,1,3,5,6,2,4,0.110391802,0.207627331,0.587129619,0.75440503,0.121835581,0.448490322,1,1,10,2,1,8,6,2,6,10,0,10,10,10,0,0,5,5,0,-1,2,0,0,-1,7,35,50,150,0,35,-,-,-,-,-,-,1,0,0,0,0,0,-,-,-,-,3,1,5,1,3,1,99999,2,30,5,1,3,0,0,0,1,170,170,170,170,170,170,170,170,170,170,153,135,118,100,83,65,48,30,-,-,-,-,0,0,7,45,2,-99,-99,-99,-99,16,0,-99,1,0,0,0,-,-1,-1,-1,-1,-1,-,200,34,-,141218_0927,2,subjects,2,18,5,0,0,0,6,2,2,0,0,0,0,0,0,0,0,0,0,0,0,0,0,0,0,0,0,4,1,6,5,2,3,0.457173582,0.241489525,0.915051075,0.632020324,0.395119706,0.446783751,1,1,10,1,1,3,6,2,6,10,0,10,10,10,0,0,5,5,0,-1,3,0,0,-1,4,35,50,225,0,35,-,-,-,-,-,-,1,0,0,0,0,0,-,-,-,-,1,2,1,4,2,4,99999,2,35,4,4,2,35,4,4,4,100,109,118,126,135,144,153,161,170,200,179,158,136,115,94,73,51,30,-,-,-,-,0,0,7,45,2,-99,-99,-99,-99,16,0,-99,1,0,0,0,-,-1,-1,-1,-1,-1,-,310,52,-,141218_0927,2,subjects,2,19,5,0,0,0,7,2,3,0,0,0,0,0,0,0,0,0,0,0,0,0,0,0,0,0,0,5,6,4,3,2,1,0.714447776,0.783866751,0.59256,0.337269094,0.257509743,0.209464515,1,1,9,2,0,0,6,2,3,0,0,10,10,0,0,0,5,5,0,-1,3,0,0,-1,7,30,30,350,0,40,-,-,-,-,-,-,1,0,0,0,0,0,-,-,-,-,1,2,1,5,1,1,99999,2,35,5,1,4,0,0,0,5,200,188,175,163,150,138,125,113,100,100,113,125,138,150,163,175,188,200,-,-,-,-,0,0,7,45,2,-99,-99,-99,-99,16,0,-99,1,0,0,0,-,-1,-1,-1,-1,-1,-,380,64,-,141218_0927,2,subjects,2,20,5,0,0,0,8,2,4,0,0,0,0,0,0,0,0,0,0,0,0,0,0,0,0,0,0,4,2,3,5,1,6,0.77683925,0.481655004,0.617666558,0.803189626,0.144570794,0.9721416,1,1,9,1,1,7,6,2,6,10,0,10,10,10,0,0,5,5,0,-1,2,0,0,-1,6,35,50,120,0,35,-,-,-,-,-,-,1,0,0,0,0,0,-,-,-,-,3,1,6,3,2,2,99999,2,30,5,4,2,30,5,4,4,100,109,118,126,135,144,153,161,170,200,179,158,136,115,94,73,51,30,-,-,-,-,0,0,7,45,2,-99,-99,-99,-99,16,0,-99,1,0,0,0,-,-1,-1,-1,-1,-1,-,200,34,-,141218_0927,2,subjects,2,21,6,0,0,0,9,2,1,0,0,0,0,0,0,0,0,0,0,0,0,0,0,0,0,0,0,3,6,4,1,5,2,0.34865708,0.969989746,0.384721878,0.128919839,0.632556954,0.18671559,1,1,12,2,1,7,6,2,6,10,0,10,10,10,5,0,0,0,0,-1,3,0,0,-1,1,35,45,3,0,35,-,-,-,-,-,-,1,0,0,0,0,0,-,-,-,-,1,2,3,4,3,1,99999,2,35,4,1,1,35,2,2,3,100,109,118,126,135,144,153,161,170,200,196,193,189,185,181,178,174,170,-,-,-,-,0,0,7,45,2,-99,-99,-99,-99,16,0,-99,5,0,0,0,-,-1,-1,-1,-1,-1,-,83,14,-,141218_0927,2,subjects,2,22,6,0,0,0,10,2,2,0,0,0,0,0,0,0,0,0,0,0,0,0,0,0,0,0,0,5,2,6,4,3,1,0.907983452,0.476300751,0.951999426,0.695377489,0.619095887,0.254358351,1,1,12,1,1,7,6,2,5,10,0,10,10,0,5,0,0,0,0,-1,3,0,0,-1,6,35,35,180,0,35,-,-,-,-,-,-,1,0,0,0,0,0,-,-,-,-,1,2,3,5,2,4,99999,2,35,5,4,2,35,5,4,5,200,188,175,163,150,138,125,113,100,100,113,125,138,150,163,175,188,200,-,-,-,-,0,0,7,45,2,-99,-99,-99,-99,16,0,-99,5,0,0,0,-,-1,-1,-1,-1,-1,-,250,42,-,141218_0927,2,subjects,2,23,6,0,0,0,11,2,3,0,0,0,0,0,0,0,0,0,0,0,0,0,0,0,0,0,0,4,1,5,2,6,3,0.476450634,0.188116929,0.705804716,0.393095868,0.931667322,0.426916649,1,1,11,2,1,1,6,2,6,10,0,10,10,10,5,0,0,0,0,-1,3,0,0,-1,2,70,45,75,0,0,-,-,-,-,-,-,1,0,0,0,0,0,-,-,-,-,1,2,2,3,3,1,99999,2,50,3,1,5,0,0,0,4,100,109,118,126,135,144,153,161,170,200,179,158,136,115,94,73,51,30,-,-,-,-,0,0,7,45,2,-99,-99,-99,-99,16,0,-99,5,0,0,0,-,-1,-1,-1,-1,-1,-,120,20,-,141218_0927,2,subjects,2,24,6,0,0,0,12,2,4,0,0,0,0,0,0,0,0,0,0,0,0,0,0,0,0,0,0,6,4,1,2,3,5,0.938130072,0.681227649,0.190126509,0.524265686,0.654594506,0.840868608,1,1,11,1,1,1,0,3,6,10,0,0,0,10,5,0,0,0,0,-1,3,0,0,-1,8,40,25,115,0,30,-,-,-,-,-,-,1,0,0,0,0,0,-,-,-,-,1,2,2,2,2,4,99999,2,35,2,4,1,35,1,3,6,200,196,193,189,185,181,178,174,170,100,109,118,126,135,144,153,161,170,-,-,-,-,0,0,7,45,2,-99,-99,-99,-99,16,0,-99,5,0,0,0,-,-1,-1,-1,-1,-1,-,175,30,-,141218_0927,2,subjects,3,1,1,0,0,0,1,1,1,0,0,0,0,0,0,0,0,0,0,0,0,0,0,0,0,0,0,6,5,3,2,4,1,0.852898815,0.702548557,0.488046957,0.352453491,0.670385598,0.218342939,1,1,2,2,1,2,6,2,6,10,0,10,10,10,0,0,5,5,5,-1,1,0,0,-1,7,35,55,125,0,35,-,-,-,-,-,-,1,0,0,0,0,0,-,-,-,-,2,3,1,3,4,1,99999,3,40,3,1,5,0,0,0,6,200,196,193,189,185,181,178,174,170,100,109,118,126,135,144,153,161,170,-,-,-,-,0,0,7,45,2,-99,-99,-99,-99,16,0,-99,3,0,0,0,-,-1,-1,-1,-1,-1,-,180,30,-,141218_0927,2,subjects,3,2,1,0,0,0,2,1,2,0,0,0,0,0,0,0,0,0,0,0,0,0,0,0,0,0,0,6,4,5,2,1,3,0.862050815,0.571336769,0.695062617,0.457073787,0.170738626,0.478695003,1,1,2,1,1,4,6,2,6,10,10,10,10,10,0,0,5,5,5,-1,1,0,0,-1,6,10,65,225,0,60,-,-,-,-,-,-,1,0,0,0,0,0,-,-,-,-,2,3,3,4,3,2,99999,3,35,4,2,5,0,0,0,6,200,196,193,189,185,181,178,174,170,100,109,118,126,135,144,153,161,170,-,-,-,-,0,0,7,45,2,-99,-99,-99,-99,16,0,-99,3,0,0,0,-,-1,-1,-1,-1,-1,-,290,49,-,141218_0927,2,subjects,3,3,1,0,0,0,3,1,3,0,0,0,0,0,0,0,0,0,0,0,0,0,0,0,0,0,0,1,3,4,2,5,6,0.039129853,0.229587277,0.604085255,0.064169952,0.741391762,0.860876822,1,1,1,2,0,2,6,2,6,0,0,10,10,10,0,0,5,5,5,-1,1,0,0,-1,3,50,45,165,0,20,-,-,-,-,-,-,1,0,0,0,0,0,-,-,-,-,2,3,2,5,2,3,99999,3,35,5,3,4,0,0,0,1,170,170,170,170,170,170,170,170,170,170,153,135,118,100,83,65,48,30,-,-,-,-,0,0,7,45,2,-99,-99,-99,-99,16,0,-99,3,0,0,0,-,-1,-1,-1,-1,-1,-,210,35,-,141218_0927,2,subjects,3,4,1,0,0,0,4,1,4,0,0,0,0,0,0,0,0,0,0,0,0,0,0,0,0,0,0,6,5,3,2,4,1,0.813622428,0.756752626,0.63815455,0.305439116,0.673357364,0.044877722,1,1,1,1,1,0,6,2,6,10,0,10,10,10,0,0,5,5,5,-1,2,0,0,-1,7,30,55,200,0,40,-,-,-,-,-,-,1,0,0,0,0,0,-,-,-,-,3,1,3,1,1,1,99999,3,30,3,1,4,0,0,0,6,200,196,193,189,185,181,178,174,170,100,109,118,126,135,144,153,161,170,-,-,-,-,0,0,7,45,2,-99,-99,-99,-99,16,0,-99,3,0,0,0,-,-1,-1,-1,-1,-1,-,255,43,-,141218_0927,2,subjects,3,5,2,0,0,0,5,1,1,0,0,0,0,0,0,0,0,0,0,0,0,0,0,0,0,0,0,2,5,6,3,1,4,0.024792823,0.779799227,0.971567205,0.044140064,0.023591123,0.496005381,1,1,4,2,1,4,6,2,6,10,10,10,10,10,5,5,5,5,0,-1,1,0,0,-1,1,35,70,150,0,35,-,-,-,-,-,-,1,0,0,0,0,0,-,-,-,-,2,3,5,6,4,1,99999,3,35,6,1,4,0,0,0,2,170,174,178,181,185,189,193,196,200,30,39,48,56,65,74,83,91,100,-,-,-,-,0,0,7,45,2,-99,-99,-99,-99,16,0,-99,3,0,0,0,-,-1,-1,-1,-1,-1,-,220,37,-,141218_0927,2,subjects,3,6,2,0,0,0,6,1,2,0,0,0,0,0,0,0,0,0,0,0,0,0,0,0,0,0,0,1,3,6,4,5,2,0.075862723,0.328871276,0.685829102,0.34509571,0.655443855,0.130016791,1,1,4,1,1,4,6,2,6,10,10,10,10,10,5,5,5,5,0,-1,2,0,0,-1,3,35,70,225,0,35,-,-,-,-,-,-,1,0,0,0,0,0,-,-,-,-,3,1,5,1,3,3,99999,3,35,5,3,3,35,5,3,1,170,170,170,170,170,170,170,170,170,170,153,135,118,100,83,65,48,30,-,-,-,-,0,0,7,45,2,-99,-99,-99,-99,16,0,-99,3,0,0,0,-,-1,-1,-1,-1,-1,-,330,55,-,141218_0927,2,subjects,3,7,2,0,0,0,7,1,3,0,0,0,0,0,0,0,0,0,0,0,0,0,0,0,0,0,0,2,4,6,1,5,3,0.091213076,0.223625616,0.692968683,0.077763588,0.261304258,0.096609173,1,1,3,2,1,4,6,2,6,10,10,10,10,10,5,5,5,5,0,-1,1,0,0,-1,4,35,70,100,0,35,-,-,-,-,-,-,1,0,0,0,0,0,-,-,-,-,2,3,3,5,2,2,99999,3,35,5,2,4,0,0,0,2,170,174,178,181,185,189,193,196,200,30,39,48,56,65,74,83,91,100,-,-,-,-,0,0,7,45,2,-99,-99,-99,-99,16,0,-99,3,0,0,0,-,-1,-1,-1,-1,-1,-,170,29,-,141218_0927,2,subjects,3,8,2,0,0,0,8,1,4,0,0,0,0,0,0,0,0,0,0,0,0,0,0,0,0,0,0,1,5,3,2,6,4,0.17565547,0.941040987,0.515216632,0.463518847,0.972626944,0.566255108,1,1,3,1,1,4,6,2,7,10,10,10,10,0,5,5,5,5,0,-1,1,0,0,-1,2,20,60,110,0,50,-,-,-,-,-,-,1,0,0,0,0,0,-,-,-,-,2,3,4,5,4,1,99999,3,35,5,1,2,30,2,4,1,170,170,170,170,170,170,170,170,170,170,153,135,118,100,83,65,48,30,-,-,-,-,0,0,7,45,2,-99,-99,-99,-99,16,0,-99,3,0,0,0,-,-1,-1,-1,-1,-1,-,200,34,-,141218_0927,2,subjects,3,9,3,0,0,0,9,1,1,0,0,0,0,0,0,0,0,0,0,0,0,0,0,0,0,0,0,4,1,5,6,3,2,0.552155516,0.018167529,0.569285719,0.929914798,0.117218493,0.053343542,1,1,6,2,5,2,6,1,8,0,0,10,0,0,0,0,0,0,0,-1,3,0,0,-1,7,40,10,149,0,30,-,-,-,-,-,-,1,0,0,0,0,0,-,-,-,-,1,2,1,1,1,4,99999,3,30,3,1,5,0,0,0,4,100,109,118,126,135,144,153,161,170,200,179,158,136,115,94,73,51,30,-,-,-,-,0,0,7,45,2,-99,-99,-99,-99,16,0,-99,2,0,0,0,-,-1,-1,-1,-1,-1,-,159,27,-,141218_0927,2,subjects,3,10,3,0,0,0,10,1,2,0,0,0,0,0,0,0,0,0,0,0,0,0,0,0,0,0,0,1,2,4,6,3,5,0.049596554,0.061175713,0.180214174,0.544917296,0.078011486,0.359359198,1,1,6,1,5,0,8,2,8,0,0,0,10,0,0,0,0,0,0,-1,2,0,0,-1,4,35,10,90,0,35,-,-,-,-,-,-,1,0,0,0,0,0,-,-,-,-,3,1,5,2,2,3,99999,3,35,5,2,1,35,3,1,1,170,170,170,170,170,170,170,170,170,170,153,135,118,100,83,65,48,30,-,-,-,-,0,0,7,45,2,-99,-99,-99,-99,16,0,-99,2,0,0,0,-,-1,-1,-1,-1,-1,-,135,23,-,141218_0927,2,subjects,3,11,3,0,0,0,11,1,3,0,0,0,0,0,0,0,0,0,0,0,0,0,0,0,0,0,0,5,3,1,6,4,2,0.817043932,0.630092912,0.057358467,0.859625372,0.685168685,0.508408225,1,1,5,2,5,2,6,2,8,0,0,10,10,0,0,0,0,0,0,-1,2,0,0,-1,6,35,20,125,0,35,-,-,-,-,-,-,1,0,0,0,0,0,-,-,-,-,3,1,4,1,2,2,99999,3,35,4,2,4,0,0,0,5,200,188,175,163,150,138,125,113,100,100,113,125,138,150,163,175,188,200,-,-,-,-,0,0,7,45,2,-99,-99,-99,-99,16,0,-99,2,0,0,0,-,-1,-1,-1,-1,-1,-,145,25,-,141218_0927,2,subjects,3,12,3,0,0,0,12,1,4,0,0,0,0,0,0,0,0,0,0,0,0,0,0,0,0,0,0,6,1,4,2,3,5,0.986778881,0.229900037,0.740664625,0.339542165,0.475724901,0.985079052,1,1,5,1,5,2,0,6,8,0,0,0,0,0,0,0,0,0,0,-1,1,0,0,-1,5,30,0,115,0,40,-,-,-,-,-,-,1,0,0,0,0,0,-,-,-,-,2,3,4,6,1,4,99999,3,30,6,4,3,30,6,4,6,200,196,193,189,185,181,178,174,170,100,109,118,126,135,144,153,161,170,-,-,-,-,0,0,7,45,2,-99,-99,-99,-99,16,0,-99,2,0,0,0,-,-1,-1,-1,-1,-1,-,145,25,-,141218_0927,2,subjects,3,13,4,0,0,0,1,2,1,0,0,0,0,0,0,0,0,0,0,0,0,0,0,0,0,0,0,4,3,2,5,1,6,0.749571916,0.502324388,0.43510142,0.822477644,0.071601771,0.936097283,1,1,8,2,1,0,6,2,6,10,0,10,10,10,5,0,5,5,5,-1,2,0,0,-1,5,35,60,175,0,35,-,-,-,-,-,-,1,0,0,0,0,0,-,-,-,-,3,1,6,3,4,4,99999,3,40,6,4,3,40,6,4,4,100,109,118,126,135,144,153,161,170,200,179,158,136,115,94,73,51,30,-,-,-,-,0,0,7,45,2,-99,-99,-99,-99,16,0,-99,6,0,0,0,-,-1,-1,-1,-1,-1,-,275,46,-,141218_0927,2,subjects,3,14,4,0,0,0,2,2,2,0,0,0,0,0,0,0,0,0,0,0,0,0,0,0,0,0,0,5,4,2,6,1,3,0.858370505,0.699238521,0.350351601,0.987033474,0.314386234,0.565983487,1,1,8,1,1,7,6,2,6,10,0,10,10,10,5,0,5,5,5,-1,3,0,0,-1,6,35,60,225,0,35,-,-,-,-,-,-,1,0,0,0,0,0,-,-,-,-,1,2,1,3,2,3,99999,3,30,4,2,2,60,3,4,5,200,188,175,163,150,138,125,113,100,100,113,125,138,150,163,175,188,200,-,-,-,-,0,0,7,45,2,-99,-99,-99,-99,16,0,-99,6,0,0,0,-,-1,-1,-1,-1,-1,-,345,58,-,141218_0927,2,subjects,3,15,4,0,0,0,3,2,3,0,0,0,0,0,0,0,0,0,0,0,0,0,0,0,0,0,0,1,3,2,6,5,4,0.003323518,0.139049403,0.023755656,0.774698801,0.362442212,0.211860635,1,1,7,2,1,7,6,2,6,10,0,10,10,10,5,0,5,5,5,-1,1,0,0,-1,8,35,60,165,0,35,-,-,-,-,-,-,1,0,0,0,0,0,-,-,-,-,2,3,6,6,2,3,99999,3,35,6,3,2,35,2,1,1,170,170,170,170,170,170,170,170,170,170,153,135,118,100,83,65,48,30,-,-,-,-,0,0,7,45,2,-99,-99,-99,-99,16,0,-99,6,0,0,0,-,-1,-1,-1,-1,-1,-,260,44,-,141218_0927,2,subjects,3,16,4,0,0,0,4,2,4,0,0,0,0,0,0,0,0,0,0,0,0,0,0,0,0,0,0,2,5,3,4,6,1,0.259880623,0.750047798,0.619365547,0.724658111,0.889432045,0.245927118,1,1,7,1,1,0,6,2,6,10,0,10,10,10,5,0,5,5,5,-1,2,0,0,-1,2,35,60,150,0,35,-,-,-,-,-,-,1,0,0,0,0,0,-,-,-,-,3,1,5,2,1,4,99999,3,35,5,1,2,30,4,4,2,170,174,178,181,185,189,193,196,200,30,39,48,56,65,74,83,91,100,-,-,-,-,0,0,7,45,2,-99,-99,-99,-99,16,0,-99,6,0,0,0,-,-1,-1,-1,-1,-1,-,240,40,-,141218_0927,2,subjects,3,17,5,0,0,0,5,2,1,0,0,0,0,0,0,0,0,0,0,0,0,0,0,0,0,0,0,2,1,6,3,5,4,0.055185478,0.050139777,0.756467047,0.181346184,0.723620033,0.53507579,1,1,10,2,1,8,6,2,6,10,0,10,10,10,0,0,5,5,0,-1,3,0,0,-1,2,35,50,150,0,35,-,-,-,-,-,-,1,0,0,0,0,0,-,-,-,-,1,2,2,4,4,4,99999,3,30,5,1,5,0,0,0,2,170,174,178,181,185,189,193,196,200,30,39,48,56,65,74,83,91,100,-,-,-,-,0,0,7,45,2,-99,-99,-99,-99,16,0,-99,6,0,0,0,-,-1,-1,-1,-1,-1,-,200,34,-,141218_0927,2,subjects,3,18,5,0,0,0,6,2,2,0,0,0,0,0,0,0,0,0,0,0,0,0,0,0,0,0,0,6,1,5,3,2,4,0.881890647,0.018803073,0.646969677,0.410962702,0.280607908,0.52604161,1,1,10,1,1,3,6,2,6,10,0,10,10,10,0,0,5,5,0,-1,3,0,0,-1,4,35,50,225,0,35,-,-,-,-,-,-,1,0,0,0,0,0,-,-,-,-,1,2,2,3,3,2,99999,3,30,5,2,3,30,5,2,6,200,196,193,189,185,181,178,174,170,100,109,118,126,135,144,153,161,170,-,-,-,-,0,0,7,45,2,-99,-99,-99,-99,16,0,-99,6,0,0,0,-,-1,-1,-1,-1,-1,-,305,51,-,141218_0927,2,subjects,3,19,5,0,0,0,7,2,3,0,0,0,0,0,0,0,0,0,0,0,0,0,0,0,0,0,0,6,2,5,4,3,1,0.684374404,0.101828708,0.633073194,0.375520293,0.249814524,0.023249626,1,1,9,2,0,0,6,2,3,0,0,10,10,0,0,0,5,5,0,-1,3,0,0,-1,3,35,30,350,0,35,-,-,-,-,-,-,1,0,0,0,0,0,-,-,-,-,1,2,1,2,3,2,99999,3,30,5,3,2,35,5,1,6,200,196,193,189,185,181,178,174,170,100,109,118,126,135,144,153,161,170,-,-,-,-,0,0,7,45,2,-99,-99,-99,-99,16,0,-99,6,0,0,0,-,-1,-1,-1,-1,-1,-,415,70,-,141218_0927,2,subjects,3,20,5,0,0,0,8,2,4,0,0,0,0,0,0,0,0,0,0,0,0,0,0,0,0,0,0,6,5,3,4,2,1,0.925827067,0.910279743,0.226695337,0.308890296,0.192202362,0.019070985,1,1,9,1,1,7,6,2,6,10,0,10,10,10,0,0,5,5,0,-1,2,0,0,-1,1,35,50,120,0,35,-,-,-,-,-,-,1,0,0,0,0,0,-,-,-,-,3,1,6,2,1,1,99999,3,35,6,1,4,0,0,0,6,200,196,193,189,185,181,178,174,170,100,109,118,126,135,144,153,161,170,-,-,-,-,0,0,7,45,2,-99,-99,-99,-99,16,0,-99,6,0,0,0,-,-1,-1,-1,-1,-1,-,170,29,-,