sid,period,recipient,subject,group,profit,totalprofit,pair,roletrust,ingroup,svogroup,role,roledictator,trio,trustprofit,give,other1,other2,otherteam,othernum,dictator_roundpay,dictator_team,dictator_num,dictatorprofit,selectedteam,selectednum,mean_to_self,mean_to_other,not_altru_indiv,inequality_aversion_score,payed_slider,svoprofit,kept_of_sender,received_from_sender,totalpayoff,topay,session,groupid,correct,correct_group,svo_angle,svo_type,sent,returned,kindness,discrimination,partner_team,partner_id,direct,otherdirect,greciprocity,othergreciprocity,in_group,otherin_group,conddirect,condgrec,condin,condition,inbiasround,inbias,groupbias,groupkindness,groupsend,history
1,1,1,1,1,0,0,1,1,1,2,2,1,1,10,35,2,3,2,3,30,1,1,0,0,0,0,0,0,-99,6,0,0,0,35,7,1,1,2,1,28.442928,2,200,10,.050000001,0,4,1,0,1,0,0,0,0,1,0,0,4,,,,,200,1
1,1,2,1,1,0,0,1,1,1,2,2,1,1,10,35,2,3,4,1,30,1,1,0,0,0,0,0,0,-99,6,0,0,0,35,7,1,1,2,1,28.442928,2,200,10,.050000001,0,4,1,1,0,0,0,0,0,1,0,0,4,,,,,200,1
1,2,1,1,1,0,0,1,1,1,2,2,1,7,200,35,2,3,3,3,35,3,3,0,0,0,0,0,0,-99,3,0,0,0,225,45,1,1,2,1,28.442928,2,200,10,.050000001,0,4,1,0,0,0,0,0,0,0,0,0,1,,,,,200,1
1,2,2,1,1,0,0,1,1,1,2,2,1,7,200,35,2,3,5,1,35,3,3,0,0,0,0,0,0,-99,3,0,0,0,225,45,1,1,2,1,28.442928,2,200,10,.050000001,0,4,1,0,0,0,0,0,0,0,0,0,1,,,,,200,1
1,3,1,1,1,0,0,1,1,1,2,2,1,3,200,40,2,3,2,3,35,2,3,35,3,3,0,0,0,-99,4,0,0,0,260,52,1,1,2,1,28.442928,2,200,10,.050000001,10,4,1,0,0,0,1,0,0,0,1,0,3,,,,,200,1
1,3,2,1,1,0,0,1,1,1,2,2,1,3,200,30,2,3,4,3,35,2,3,35,3,3,0,0,0,-99,4,0,0,0,260,52,1,1,2,1,28.442928,2,200,10,.050000001,10,4,1,0,0,1,0,0,0,0,1,0,3,,,,,200,1
1,4,1,1,1,0,0,1,1,1,2,2,1,1,200,20,2,3,4,2,35,6,2,35,2,3,0,0,0,-99,6,0,0,0,260,52,1,1,2,1,28.442928,2,200,10,.050000001,30,4,1,0,0,1,0,0,0,0,1,0,3,,,,,200,0
1,4,2,1,1,0,0,1,1,1,2,2,1,1,200,50,2,3,6,2,35,6,2,35,2,3,0,0,0,-99,6,0,0,0,260,52,1,1,2,1,28.442928,2,200,10,.050000001,30,4,1,0,0,0,1,0,0,0,1,0,3,,,,,200,0
1,5,1,1,1,0,0,1,1,1,2,2,1,1,200,35,2,3,5,3,35,5,3,30,1,1,185,111.666666666666,0,-99,4,115,135,115,370,74,1,1,2,1,28.442928,2,200,10,.050000001,0,4,1,0,0,0,0,0,0,0,0,0,1,,,,,200,1
1,5,2,1,1,0,0,1,1,1,2,2,1,1,200,35,2,3,6,3,35,5,3,30,1,1,185,111.666666666666,0,-99,4,115,135,115,370,74,1,1,2,1,28.442928,2,200,10,.050000001,0,4,1,0,0,0,0,0,0,0,0,0,1,,,,,200,1
2,1,1,2,1,0,0,2,1,2,2,1,1,2,300,35,2,3,2,4,30,1,2,0,0,0,0,0,0,-99,6,0,0,0,335,67,1,1,3,1,38.820076,2,200,300,1.5,0,4,2,0,1,0,0,0,0,1,0,0,4,,,,,200,1
2,1,2,2,1,0,0,2,1,2,2,1,1,2,300,35,2,3,4,2,30,1,2,0,0,0,0,0,0,-99,6,0,0,0,335,67,1,1,3,1,38.820076,2,200,300,1.5,0,4,2,1,0,0,0,0,0,1,0,0,4,,,,,200,1
2,2,1,2,1,0,0,2,1,2,2,1,1,8,200,35,2,3,3,4,20,3,4,30,1,2,0,0,0,-99,3,0,0,0,265,53,1,1,3,1,38.820076,2,200,300,1.5,0,4,2,0,0,0,0,0,0,0,0,0,1,,,,,200,1
2,2,2,2,1,0,0,2,1,2,2,1,1,8,200,35,2,3,5,2,20,3,4,30,1,2,0,0,0,-99,3,0,0,0,265,53,1,1,3,1,38.820076,2,200,300,1.5,0,4,2,0,0,0,0,0,0,0,0,0,1,,,,,200,1
2,3,1,2,1,0,0,2,1,2,2,1,1,4,200,35,2,3,2,4,0,2,4,0,2,4,0,0,0,-99,4,0,0,0,235,47,1,1,3,1,38.820076,2,200,300,1.5,0,4,2,0,0,0,1,0,0,0,1,0,3,,,,,200,1
2,3,2,2,1,0,0,2,1,2,2,1,1,4,200,35,2,3,4,4,0,2,4,0,2,4,0,0,0,-99,4,0,0,0,235,47,1,1,3,1,38.820076,2,200,300,1.5,0,4,2,0,0,1,0,0,0,0,1,0,3,,,,,200,1
2,4,1,2,1,0,0,2,1,2,2,1,1,2,200,35,2,3,4,1,35,6,1,20,3,4,0,0,0,-99,6,0,0,0,255,51,1,1,3,1,38.820076,2,200,300,1.5,0,4,2,0,0,1,0,0,0,0,1,0,3,,,,,200,0
2,4,2,2,1,0,0,2,1,2,2,1,1,2,200,35,2,3,6,1,35,6,1,20,3,4,0,0,0,-99,6,0,0,0,255,51,1,1,3,1,38.820076,2,200,300,1.5,0,4,2,0,0,0,1,0,0,0,1,0,3,,,,,200,0
2,5,1,2,1,0,0,2,1,2,2,1,1,2,200,35,2,3,5,4,35,5,4,30,1,2,170,141.666666666666,0,-99,4,135,0,0,400,80,1,1,3,1,38.820076,2,200,300,1.5,0,4,2,0,0,0,0,0,0,0,0,0,1,,,,,200,1
2,5,2,2,1,0,0,2,1,2,2,1,1,2,200,35,2,3,6,4,35,5,4,30,1,2,170,141.666666666666,0,-99,4,135,0,0,400,80,1,1,3,1,38.820076,2,200,300,1.5,0,4,2,0,0,0,0,0,0,0,0,0,1,,,,,200,1
3,1,1,3,1,0,0,3,1,3,1,2,1,3,250,35,2,3,3,1,30,1,3,0,0,0,0,0,0,-99,6,0,0,0,295,59,1,1,4,1,41.743954,2,200,250,1.25,0,4,3,0,0,0,0,0,0,0,0,0,1,,,,,200,0
3,1,2,3,1,0,0,3,1,3,1,2,1,3,250,35,2,3,6,1,30,1,3,0,0,0,0,0,0,-99,6,0,0,0,295,59,1,1,4,1,41.743954,2,200,250,1.25,0,4,3,0,0,0,0,0,0,0,0,0,1,,,,,200,0
3,2,1,3,1,0,0,3,1,3,1,2,1,1,200,50,2,3,3,1,35,3,1,35,3,1,0,0,0,-99,3,0,0,0,280,56,1,1,4,1,41.743954,2,200,250,1.25,30,4,3,0,1,0,0,0,0,1,0,0,4,,,,,200,1
3,2,2,3,1,0,0,3,1,3,1,2,1,1,200,20,2,3,4,3,35,3,1,35,3,1,0,0,0,-99,3,0,0,0,280,56,1,1,4,1,41.743954,2,200,250,1.25,30,4,3,1,0,0,0,0,0,1,0,0,4,,,,,200,1
3,3,1,3,1,0,0,3,1,3,1,2,1,7,200,35,2,3,4,1,35,4,1,30,1,3,0,0,0,-99,4,0,0,0,275,55,1,1,4,1,41.743954,2,200,250,1.25,0,4,3,0,0,1,0,0,0,0,1,0,3,,,,,200,0
3,3,2,3,1,0,0,3,1,3,1,2,1,7,200,35,2,3,6,3,35,4,1,30,1,3,0,0,0,-99,4,0,0,0,275,55,1,1,4,1,41.743954,2,200,250,1.25,0,4,3,0,0,0,1,0,0,0,1,0,3,,,,,200,0
3,4,1,3,1,0,0,3,1,3,1,2,2,3,200,35,3,1,5,3,40,5,3,0,0,0,0,0,0,-99,6,0,0,0,245,49,1,1,4,1,41.743954,2,200,250,1.25,0,4,3,0,0,0,0,0,0,0,0,0,1,,,,,200,0
3,4,2,3,1,0,0,3,1,3,1,2,2,3,200,35,3,1,2,3,40,5,3,0,0,0,0,0,0,-99,6,0,0,0,245,49,1,1,4,1,41.743954,2,200,250,1.25,0,4,3,0,0,0,0,0,0,0,0,0,1,,,,,200,0
3,5,1,3,1,0,0,3,1,3,1,2,1,3,200,35,2,3,2,2,35,2,2,40,5,3,164.333333333333,149.333333333333,0,-99,4,30,170,30,315,63,1,1,4,1,41.743954,2,200,250,1.25,0,4,3,0,0,0,1,0,0,0,1,0,3,,,,,200,0
3,5,2,3,1,0,0,3,1,3,1,2,1,3,200,35,2,3,4,4,35,2,2,40,5,3,164.333333333333,149.333333333333,0,-99,4,30,170,30,315,63,1,1,4,1,41.743954,2,200,250,1.25,0,4,3,0,0,1,0,0,0,0,1,0,3,,,,,200,0
4,1,1,4,1,0,0,4,1,4,1,1,1,4,300,35,2,3,3,2,30,1,4,0,0,0,0,0,0,-99,6,0,0,0,325,65,1,1,2,1,32.391392,2,200,300,1.5,0,4,4,0,0,0,0,0,0,0,0,0,1,,,,,200,0
4,1,2,4,1,0,0,4,1,4,1,1,1,4,300,35,2,3,6,2,30,1,4,0,0,0,0,0,0,-99,6,0,0,0,325,65,1,1,2,1,32.391392,2,200,300,1.5,0,4,4,0,0,0,0,0,0,0,0,0,1,,,,,200,0
4,2,1,4,1,0,0,4,1,4,1,1,1,2,200,35,2,3,3,2,35,3,2,30,1,4,0,0,0,-99,3,0,0,0,255,51,1,1,2,1,32.391392,2,200,300,1.5,0,4,4,0,1,0,0,0,0,1,0,0,4,,,,,200,1
4,2,2,4,1,0,0,4,1,4,1,1,1,2,200,35,2,3,4,4,35,3,2,30,1,4,0,0,0,-99,3,0,0,0,255,51,1,1,2,1,32.391392,2,200,300,1.5,0,4,4,1,0,0,0,0,0,1,0,0,4,,,,,200,1
4,3,1,4,1,0,0,4,1,4,1,1,1,8,200,35,2,3,4,2,35,4,2,35,3,2,0,0,0,-99,4,0,0,0,260,52,1,1,2,1,32.391392,2,200,300,1.5,0,4,4,0,0,1,0,0,0,0,1,0,3,,,,,200,0
4,3,2,4,1,0,0,4,1,4,1,1,1,8,200,35,2,3,6,4,35,4,2,35,3,2,0,0,0,-99,4,0,0,0,260,52,1,1,2,1,32.391392,2,200,300,1.5,0,4,4,0,0,0,1,0,0,0,1,0,3,,,,,200,0
4,4,1,4,1,0,0,4,1,4,1,1,2,4,200,35,3,1,5,4,35,5,4,35,5,4,0,0,0,-99,6,0,0,0,260,52,1,1,2,1,32.391392,2,200,300,1.5,0,4,4,0,0,0,0,0,0,0,0,0,1,,,,,200,1
4,4,2,4,1,0,0,4,1,4,1,1,2,4,200,35,3,1,2,4,35,5,4,35,5,4,0,0,0,-99,6,0,0,0,260,52,1,1,2,1,32.391392,2,200,300,1.5,0,4,4,0,0,0,0,0,0,0,0,0,1,,,,,200,1
4,5,1,4,1,0,0,4,1,4,1,1,1,4,200,35,2,3,2,1,50,2,1,35,4,2,180,123.333333333333,0,-99,4,170,0,0,430,86,1,1,2,1,32.391392,2,200,300,1.5,0,4,4,0,0,0,1,0,0,0,1,0,3,,,,,200,0
4,5,2,4,1,0,0,4,1,4,1,1,1,4,200,35,2,3,4,3,50,2,1,35,4,2,180,123.333333333333,0,-99,4,170,0,0,430,86,1,1,2,1,32.391392,2,200,300,1.5,0,4,4,0,0,1,0,0,0,0,1,0,3,,,,,200,0
5,1,1,5,2,0,0,5,1,1,4,2,1,5,300,40,2,3,4,4,30,2,1,30,2,1,0,0,0,-99,5,0,0,0,355,71,1,2,2,1,28.442928,2,200,300,1.5,10,5,1,0,0,0,1,0,0,0,1,0,3,,,,,93.75,1
5,1,2,5,2,0,0,5,1,1,4,2,1,5,300,30,2,3,5,2,30,2,1,30,2,1,0,0,0,-99,5,0,0,0,355,71,1,2,2,1,28.442928,2,200,300,1.5,10,5,1,0,0,1,0,0,0,0,1,0,3,,,,,93.75,1
5,2,1,5,2,0,0,5,1,1,4,2,1,3,200,35,2,3,4,1,35,4,1,0,0,0,0,0,0,-99,3,0,0,0,225,45,1,2,2,1,28.442928,2,200,300,1.5,0,5,1,0,0,0,0,0,0,0,0,0,1,,,,,93.75,1
5,2,2,5,2,0,0,5,1,1,4,2,1,3,200,35,2,3,6,3,35,4,1,0,0,0,0,0,0,-99,3,0,0,0,225,45,1,2,2,1,28.442928,2,200,300,1.5,0,5,1,0,0,0,0,0,0,0,0,0,1,,,,,93.75,1
5,3,1,5,2,0,0,5,1,1,4,2,1,1,200,35,2,3,3,3,35,3,3,35,4,1,0,0,0,-99,6,0,0,0,260,52,1,2,2,1,28.442928,2,200,300,1.5,0,5,1,0,1,0,0,0,0,1,0,0,4,,,,,93.75,1
5,3,2,5,2,0,0,5,1,1,4,2,1,1,200,35,2,3,5,1,35,3,3,35,4,1,0,0,0,-99,6,0,0,0,260,52,1,2,2,1,28.442928,2,200,300,1.5,0,5,1,1,0,0,0,0,0,1,0,0,4,,,,,93.75,1
5,4,1,5,2,0,0,5,1,1,4,2,2,5,200,40,3,1,5,1,70,5,1,0,0,0,0,0,0,-99,3,0,0,0,225,45,1,2,2,1,28.442928,2,200,300,1.5,10,5,1,1,0,0,0,0,0,1,0,0,4,,,,,93.75,1
5,4,2,5,2,0,0,5,1,1,4,2,2,5,200,30,3,1,3,1,70,5,1,0,0,0,0,0,0,-99,3,0,0,0,225,45,1,2,2,1,28.442928,2,200,300,1.5,10,5,1,0,1,0,0,0,0,1,0,0,4,,,,,93.75,1
5,5,1,5,2,0,0,5,1,1,4,2,2,4,200,20,3,1,4,3,30,2,1,35,3,3,185,111.666666666666,0,-99,2,74,189,74,334,67,1,2,2,1,28.442928,2,200,300,1.5,30,5,1,0,0,0,0,0,0,0,0,0,1,,,,,93.75,0
5,5,2,5,2,0,0,5,1,1,4,2,2,4,200,50,3,1,1,4,30,2,1,35,3,3,185,111.666666666666,0,-99,2,74,189,74,334,67,1,2,2,1,28.442928,2,200,300,1.5,30,5,1,0,0,0,0,0,0,0,0,0,1,,,,,93.75,0
6,1,1,6,2,0,0,6,1,2,4,1,1,6,185,35,2,3,4,3,30,2,2,30,2,2,0,0,0,-99,5,0,0,0,230,46,1,2,1,1,32.992458,2,20,5,.25,0,5,2,0,0,0,1,0,0,0,1,0,3,,,,,93.75,0
6,1,2,6,2,0,0,6,1,2,4,1,1,6,185,35,2,3,5,1,30,2,2,30,2,2,0,0,0,-99,5,0,0,0,230,46,1,2,1,1,32.992458,2,20,5,.25,0,5,2,0,0,1,0,0,0,0,1,0,3,,,,,93.75,0
6,2,1,6,2,0,0,6,1,2,4,1,1,4,200,40,2,3,4,2,35,4,2,0,0,0,0,0,0,-99,3,0,0,0,215,43,1,2,1,1,32.992458,2,20,5,.25,10,5,2,0,0,0,0,0,0,0,0,0,1,,,,,93.75,0
6,2,2,6,2,0,0,6,1,2,4,1,1,4,200,30,2,3,6,4,35,4,2,0,0,0,0,0,0,-99,3,0,0,0,215,43,1,2,1,1,32.992458,2,20,5,.25,10,5,2,0,0,0,0,0,0,0,0,0,1,,,,,93.75,0
6,3,1,6,2,0,0,6,1,2,4,1,1,2,200,35,2,3,3,4,10,3,4,30,2,2,0,0,0,-99,6,0,0,0,245,49,1,2,1,1,32.992458,2,20,5,.25,0,5,2,0,1,0,0,0,0,1,0,0,4,,,,,93.75,1
6,3,2,6,2,0,0,6,1,2,4,1,1,2,200,35,2,3,5,2,10,3,4,30,2,2,0,0,0,-99,6,0,0,0,245,49,1,2,1,1,32.992458,2,20,5,.25,0,5,2,1,0,0,0,0,0,1,0,0,4,,,,,93.75,1
6,4,1,6,2,0,0,6,1,2,4,1,2,6,200,20,3,1,5,2,35,5,2,10,3,4,0,0,0,-99,3,0,0,0,225,45,1,2,1,1,32.992458,2,20,5,.25,30,5,2,1,0,0,0,0,0,1,0,0,4,,,,,93.75,1
6,4,2,6,2,0,0,6,1,2,4,1,2,6,200,50,3,1,3,2,35,5,2,10,3,4,0,0,0,-99,3,0,0,0,225,45,1,2,1,1,32.992458,2,20,5,.25,30,5,2,0,1,0,0,0,0,1,0,0,4,,,,,93.75,1
6,5,1,6,2,0,0,6,1,2,4,1,2,3,200,35,3,1,4,4,30,2,2,35,5,2,174.666666666666,122.166666666666,0,-99,2,189,0,0,439,88,1,2,1,1,32.992458,2,20,5,.25,0,5,2,0,0,0,0,0,0,0,0,0,1,,,,,93.75,1
6,5,2,6,2,0,0,6,1,2,4,1,2,3,200,35,3,1,1,3,30,2,2,35,5,2,174.666666666666,122.166666666666,0,-99,2,189,0,0,439,88,1,2,1,1,32.992458,2,20,5,.25,0,5,2,0,0,0,0,0,0,0,0,0,1,,,,,93.75,1
7,1,1,7,2,0,0,7,1,3,3,2,2,1,195,35,3,1,4,1,35,1,1,35,1,1,0,0,0,-99,5,0,0,0,255,51,1,2,2,1,38.554276,2,55,50,.90909094,0,5,3,0,0,0,0,0,0,0,0,0,1,,,,,93.75,0
7,1,2,7,2,0,0,7,1,3,3,2,2,1,195,35,3,1,1,1,35,1,1,35,1,1,0,0,0,-99,5,0,0,0,255,51,1,2,2,1,38.554276,2,55,50,.90909094,0,5,3,0,0,0,0,0,0,0,0,0,1,,,,,93.75,0
7,2,1,7,2,0,0,7,1,3,3,2,1,5,200,35,2,3,5,4,35,5,4,35,5,4,0,0,0,-99,3,0,0,0,260,52,1,2,2,1,38.554276,2,55,50,.90909094,0,5,3,0,0,1,0,0,0,0,1,0,3,,,,,93.75,0
7,2,2,7,2,0,0,7,1,3,3,2,1,5,200,35,2,3,6,2,35,5,4,35,5,4,0,0,0,-99,3,0,0,0,260,52,1,2,2,1,38.554276,2,55,50,.90909094,0,5,3,0,0,0,1,0,0,0,1,0,3,,,,,93.75,0
7,3,1,7,2,0,0,7,1,3,3,2,2,3,200,35,3,1,4,3,30,2,3,35,1,1,0,0,0,-99,6,0,0,0,260,52,1,2,2,1,38.554276,2,55,50,.90909094,0,5,3,0,0,0,0,0,0,0,0,0,1,,,,,93.75,0
7,3,2,7,2,0,0,7,1,3,3,2,2,3,200,35,3,1,1,1,30,2,3,35,1,1,0,0,0,-99,6,0,0,0,260,52,1,2,2,1,38.554276,2,55,50,.90909094,0,5,3,0,0,0,0,0,0,0,0,0,1,,,,,93.75,0
7,4,1,7,2,0,0,7,1,3,3,2,1,3,200,30,2,3,1,3,30,5,3,30,5,3,0,0,0,-99,3,0,0,0,255,51,1,2,2,1,38.554276,2,55,50,.90909094,10,5,3,0,1,0,0,0,0,1,0,0,4,,,,,93.75,1
7,4,2,7,2,0,0,7,1,3,3,2,1,3,200,40,2,3,5,3,30,5,3,30,5,3,0,0,0,-99,3,0,0,0,255,51,1,2,2,1,38.554276,2,55,50,.90909094,10,5,3,1,0,0,0,0,0,1,0,0,4,,,,,93.75,1
7,5,1,7,2,0,0,7,1,3,3,2,1,7,200,35,2,3,3,3,35,3,3,35,5,4,168.666666666666,139.5,0,-99,2,100,200,100,360,72,1,2,2,1,38.554276,2,55,50,.90909094,0,5,3,0,0,0,0,0,0,0,0,0,1,,,,,93.75,1
7,5,2,7,2,0,0,7,1,3,3,2,1,7,200,35,2,3,4,1,35,3,3,35,5,4,168.666666666666,139.5,0,-99,2,100,200,100,360,72,1,2,2,1,38.554276,2,55,50,.90909094,0,5,3,0,0,0,0,0,0,0,0,0,1,,,,,93.75,1
8,1,1,8,2,0,0,8,1,4,3,1,2,2,100,20,3,1,4,2,35,1,2,0,0,0,0,0,0,-99,5,0,0,0,125,25,1,2,2,1,28.442928,2,100,0,0,30,5,4,0,0,0,0,0,0,0,0,0,1,,,,,93.75,0
8,1,2,8,2,0,0,8,1,4,3,1,2,2,100,50,3,1,1,2,35,1,2,0,0,0,0,0,0,-99,5,0,0,0,125,25,1,2,2,1,28.442928,2,100,0,0,30,5,4,0,0,0,0,0,0,0,0,0,1,,,,,93.75,0
8,2,1,8,2,0,0,8,1,4,3,1,1,6,200,20,2,3,5,3,35,5,3,0,0,0,0,0,0,-99,3,0,0,0,225,45,1,2,2,1,28.442928,2,100,0,0,30,5,4,0,0,1,0,0,0,0,1,0,3,,,,,93.75,1
8,2,2,8,2,0,0,8,1,4,3,1,1,6,200,50,2,3,6,1,35,5,3,0,0,0,0,0,0,-99,3,0,0,0,225,45,1,2,2,1,28.442928,2,100,0,0,30,5,4,0,0,0,1,0,0,0,1,0,3,,,,,93.75,1
8,3,1,8,2,0,0,8,1,4,3,1,2,4,200,70,3,1,4,4,30,2,4,35,5,3,0,0,0,-99,6,0,0,0,260,52,1,2,2,1,28.442928,2,100,0,0,70,5,4,0,0,0,0,0,0,0,0,0,1,,,,,93.75,0
8,3,2,8,2,0,0,8,1,4,3,1,2,4,200,0,3,1,1,2,30,2,4,35,5,3,0,0,0,-99,6,0,0,0,260,52,1,2,2,1,28.442928,2,100,0,0,70,5,4,0,0,0,0,0,0,0,0,0,1,,,,,93.75,0
8,4,1,8,2,0,0,8,1,4,3,1,1,4,200,70,2,3,1,4,35,5,4,35,5,3,0,0,0,-99,3,0,0,0,260,52,1,2,2,1,28.442928,2,100,0,0,70,5,4,0,1,0,0,0,0,1,0,0,4,,,,,93.75,1
8,4,2,8,2,0,0,8,1,4,3,1,1,4,200,0,2,3,5,4,35,5,4,35,5,3,0,0,0,-99,3,0,0,0,260,52,1,2,2,1,28.442928,2,100,0,0,70,5,4,1,0,0,0,0,0,1,0,0,4,,,,,93.75,1
8,5,1,8,2,0,0,8,1,4,3,1,1,8,200,0,2,3,3,4,35,3,4,35,5,4,185,111.666666666666,0,-99,2,200,0,0,460,92,1,2,2,1,28.442928,2,100,0,0,70,5,4,0,0,0,0,0,0,0,0,0,1,,,,,93.75,0
8,5,2,8,2,0,0,8,1,4,3,1,1,8,200,70,2,3,4,2,35,3,4,35,5,4,185,111.666666666666,0,-99,2,200,0,0,460,92,1,2,2,1,28.442928,2,100,0,0,70,5,4,0,0,0,0,0,0,0,0,0,1,,,,,93.75,0
9,1,1,9,3,0,0,9,1,1,6,2,2,3,300,35,3,1,6,1,35,1,3,0,0,0,0,0,0,-99,5,0,0,0,340,68,1,3,3,2,45,2,200,300,1.5,0,6,1,1,0,0,0,0,0,1,0,0,4,,,,,112.5,1
9,1,2,9,3,0,0,9,1,1,6,2,2,3,300,35,3,1,1,3,35,1,3,0,0,0,0,0,0,-99,5,0,0,0,340,68,1,3,3,2,45,2,200,300,1.5,0,6,1,0,1,0,0,0,0,1,0,0,4,,,,,112.5,1
9,2,1,9,3,0,0,9,1,1,6,2,2,1,200,35,3,1,4,3,30,3,1,35,1,3,0,0,0,-99,6,0,0,0,275,55,1,3,3,2,45,2,200,300,1.5,0,6,1,0,0,0,0,0,0,0,0,0,1,,,,,112.5,1
9,2,2,9,3,0,0,9,1,1,6,2,2,1,200,35,3,1,1,3,30,3,1,35,1,3,0,0,0,-99,6,0,0,0,275,55,1,3,3,2,45,2,200,300,1.5,0,6,1,0,0,0,0,0,0,0,0,0,1,,,,,112.5,1
9,3,1,9,3,0,0,9,1,1,6,2,1,5,200,35,2,3,5,4,35,5,4,35,1,3,0,0,0,-99,3,0,0,0,275,55,1,3,3,2,45,2,200,300,1.5,0,6,1,0,0,0,1,0,0,0,1,0,3,,,,,112.5,1
9,3,2,9,3,0,0,9,1,1,6,2,1,5,200,35,2,3,6,2,35,5,4,35,1,3,0,0,0,-99,3,0,0,0,275,55,1,3,3,2,45,2,200,300,1.5,0,6,1,0,0,1,0,0,0,0,1,0,3,,,,,112.5,1
9,4,1,9,3,0,0,9,1,1,6,2,1,5,200,35,2,3,2,1,0,5,1,0,0,0,0,0,0,-99,1,0,0,0,240,48,1,3,3,2,45,2,200,300,1.5,0,6,1,0,0,0,0,0,0,0,0,0,1,,,,,112.5,1
9,4,2,9,3,0,0,9,1,1,6,2,1,5,200,35,2,3,5,1,0,5,1,0,0,0,0,0,0,-99,1,0,0,0,240,48,1,3,3,2,45,2,200,300,1.5,0,6,1,0,0,0,0,0,0,0,0,0,1,,,,,112.5,1
9,5,1,9,3,0,0,9,1,1,6,2,1,5,200,35,2,3,5,1,35,5,1,0,5,1,160,160,0,-99,6,170,170,170,410,82,1,3,3,2,45,2,200,300,1.5,0,6,1,0,1,0,0,0,0,1,0,0,4,,,,,112.5,1
9,5,2,9,3,0,0,9,1,1,6,2,1,5,200,35,2,3,6,1,35,5,1,0,5,1,160,160,0,-99,6,170,170,170,410,82,1,3,3,2,45,2,200,300,1.5,0,6,1,1,0,0,0,0,0,1,0,0,4,,,,,112.5,1
10,1,1,10,3,0,0,10,1,2,6,1,2,4,200,35,3,1,6,2,35,1,4,0,0,0,0,0,0,-99,5,0,0,0,230,46,1,3,2,2,41.467705,2,0,0,,0,6,2,1,0,0,0,0,0,1,0,0,4,,,,,112.5,1
10,1,2,10,3,0,0,10,1,2,6,1,2,4,200,35,3,1,1,4,35,1,4,0,0,0,0,0,0,-99,5,0,0,0,230,46,1,3,2,2,41.467705,2,0,0,,0,6,2,0,1,0,0,0,0,1,0,0,4,,,,,112.5,1
10,2,1,10,3,0,0,10,1,2,6,1,2,2,200,35,3,1,4,4,30,3,2,0,0,0,0,0,0,-99,6,0,0,0,230,46,1,3,2,2,41.467705,2,0,0,,0,6,2,0,0,0,0,0,0,0,0,0,1,,,,,112.5,1
10,2,2,10,3,0,0,10,1,2,6,1,2,2,200,35,3,1,1,4,30,3,2,0,0,0,0,0,0,-99,6,0,0,0,230,46,1,3,2,2,41.467705,2,0,0,,0,6,2,0,0,0,0,0,0,0,0,0,1,,,,,112.5,1
10,3,1,10,3,0,0,10,1,2,6,1,1,6,200,35,2,3,5,3,35,5,3,30,3,2,0,0,0,-99,3,0,0,0,260,52,1,3,2,2,41.467705,2,0,0,,0,6,2,0,0,0,1,0,0,0,1,0,3,,,,,112.5,0
10,3,2,10,3,0,0,10,1,2,6,1,1,6,200,35,2,3,6,1,35,5,3,30,3,2,0,0,0,-99,3,0,0,0,260,52,1,3,2,2,41.467705,2,0,0,,0,6,2,0,0,1,0,0,0,0,1,0,3,,,,,112.5,0
10,4,1,10,3,0,0,10,1,2,6,1,1,6,200,35,2,3,2,2,35,5,2,35,1,4,0,0,0,-99,1,0,0,0,265,53,1,3,2,2,41.467705,2,0,0,,0,6,2,0,0,0,0,0,0,0,0,0,1,,,,,112.5,1
10,4,2,10,3,0,0,10,1,2,6,1,1,6,200,35,2,3,5,2,35,5,2,35,1,4,0,0,0,-99,1,0,0,0,265,53,1,3,2,2,41.467705,2,0,0,,0,6,2,0,0,0,0,0,0,0,0,0,1,,,,,112.5,1
10,5,1,10,3,0,0,10,1,2,6,1,1,6,200,35,2,3,5,2,20,5,2,30,3,2,168.333333333333,151.666666666666,0,-99,6,170,0,0,430,86,1,3,2,2,41.467705,2,0,0,,0,6,2,0,1,0,0,0,0,1,0,0,4,,,,,112.5,1
10,5,2,10,3,0,0,10,1,2,6,1,1,6,200,35,2,3,6,2,20,5,2,30,3,2,168.333333333333,151.666666666666,0,-99,6,170,0,0,430,86,1,3,2,2,41.467705,2,0,0,,0,6,2,1,0,0,0,0,0,1,0,0,4,,,,,112.5,1
11,1,1,11,3,0,0,11,1,3,5,2,1,7,200,45,2,3,5,3,30,3,3,0,0,0,0,0,0,-99,5,0,0,0,250,50,1,3,4,2,35.883907,2,150,150,1,20,6,3,0,1,0,0,0,0,1,0,0,4,,,,,112.5,1
11,1,2,11,3,0,0,11,1,3,5,2,1,7,200,25,2,3,6,3,30,3,3,0,0,0,0,0,0,-99,5,0,0,0,250,50,1,3,4,2,35.883907,2,150,150,1,20,6,3,1,0,0,0,0,0,1,0,0,4,,,,,112.5,1
11,2,1,11,3,0,0,11,1,3,5,2,2,7,200,35,3,1,5,1,30,3,3,0,0,0,0,0,0,-99,6,0,0,0,250,50,1,3,4,2,35.883907,2,150,150,1,0,6,3,0,0,0,0,0,0,0,0,0,1,,,,,112.5,1
11,2,2,11,3,0,0,11,1,3,5,2,2,7,200,35,3,1,1,1,30,3,3,0,0,0,0,0,0,-99,6,0,0,0,250,50,1,3,4,2,35.883907,2,150,150,1,0,6,3,0,0,0,0,0,0,0,0,0,1,,,,,112.5,1
11,3,1,11,3,0,0,11,1,3,5,2,2,1,200,35,3,1,5,1,30,3,3,0,0,0,0,0,0,-99,3,0,0,0,250,50,1,3,4,2,35.883907,2,150,150,1,0,6,3,0,0,0,0,0,0,0,0,0,1,,,,,112.5,1
11,3,2,11,3,0,0,11,1,3,5,2,2,1,200,35,3,1,2,1,30,3,3,0,0,0,0,0,0,-99,3,0,0,0,250,50,1,3,4,2,35.883907,2,150,150,1,0,6,3,0,0,0,0,0,0,0,0,0,1,,,,,112.5,1
11,4,1,11,3,0,0,11,1,3,5,2,1,7,200,35,2,3,4,4,60,6,4,30,3,3,0,0,0,-99,1,0,0,0,280,56,1,3,4,2,35.883907,2,150,150,1,0,6,3,0,0,0,1,0,0,0,1,0,3,,,,,112.5,1
11,4,2,11,3,0,0,11,1,3,5,2,1,7,200,35,2,3,6,4,60,6,4,30,3,3,0,0,0,-99,1,0,0,0,280,56,1,3,4,2,35.883907,2,150,150,1,0,6,3,0,0,1,0,0,0,0,1,0,3,,,,,112.5,1
11,5,1,11,3,0,0,11,1,3,5,2,2,7,200,35,3,1,4,1,30,3,3,30,3,3,175.666666666666,134,0,-99,6,100,200,100,380,76,1,3,4,2,35.883907,2,150,150,1,0,6,3,0,0,0,0,0,0,0,0,0,1,,,,,112.5,1
11,5,2,11,3,0,0,11,1,3,5,2,2,7,200,35,3,1,2,3,30,3,3,30,3,3,175.666666666666,134,0,-99,6,100,200,100,380,76,1,3,4,2,35.883907,2,150,150,1,0,6,3,0,0,0,0,0,0,0,0,0,1,,,,,112.5,1
12,1,1,12,3,0,0,12,1,4,5,1,1,8,250,35,2,3,5,4,30,3,4,0,0,0,0,0,0,-99,5,0,0,0,280,56,1,3,2,2,21.59531,3,100,150,1.5,0,6,4,0,1,0,0,0,0,1,0,0,4,,,,,112.5,1
12,1,2,12,3,0,0,12,1,4,5,1,1,8,250,35,2,3,6,4,30,3,4,0,0,0,0,0,0,-99,5,0,0,0,280,56,1,3,2,2,21.59531,3,100,150,1.5,0,6,4,1,0,0,0,0,0,1,0,0,4,,,,,112.5,1
12,2,1,12,3,0,0,12,1,4,5,1,2,8,200,50,3,1,5,2,30,3,4,0,0,0,0,0,0,-99,6,0,0,0,230,46,1,3,2,2,21.59531,3,100,150,1.5,30,6,4,0,0,0,0,0,0,0,0,0,1,,,,,112.5,0
12,2,2,12,3,0,0,12,1,4,5,1,2,8,200,20,3,1,1,2,30,3,4,0,0,0,0,0,0,-99,6,0,0,0,230,46,1,3,2,2,21.59531,3,100,150,1.5,30,6,4,0,0,0,0,0,0,0,0,0,1,,,,,112.5,0
12,3,1,12,3,0,0,12,1,4,5,1,2,2,200,60,3,1,5,2,30,3,4,30,3,4,0,0,0,-99,3,0,0,0,260,52,1,3,2,2,21.59531,3,100,150,1.5,50,6,4,0,0,0,0,0,0,0,0,0,1,,,,,112.5,0
12,3,2,12,3,0,0,12,1,4,5,1,2,2,200,10,3,1,2,2,30,3,4,30,3,4,0,0,0,-99,3,0,0,0,260,52,1,3,2,2,21.59531,3,100,150,1.5,50,6,4,0,0,0,0,0,0,0,0,0,1,,,,,112.5,0
12,4,1,12,3,0,0,12,1,4,5,1,1,8,200,30,2,3,4,3,50,6,3,30,3,4,0,0,0,-99,1,0,0,0,260,52,1,3,2,2,21.59531,3,100,150,1.5,10,6,4,0,0,0,1,0,0,0,1,0,3,,,,,112.5,0
12,4,2,12,3,0,0,12,1,4,5,1,1,8,200,40,2,3,6,3,50,6,3,30,3,4,0,0,0,-99,1,0,0,0,260,52,1,3,2,2,21.59531,3,100,150,1.5,10,6,4,0,0,1,0,0,0,0,1,0,3,,,,,112.5,0
12,5,1,12,3,0,0,12,1,4,5,1,2,8,200,35,3,1,4,2,30,3,4,30,3,4,185,88.3333333333333,0,-99,6,200,0,0,460,92,1,3,2,2,21.59531,3,100,150,1.5,0,6,4,0,0,0,0,0,0,0,0,0,1,,,,,112.5,0
12,5,2,12,3,0,0,12,1,4,5,1,2,8,200,35,3,1,2,4,30,3,4,30,3,4,185,88.3333333333333,0,-99,6,200,0,0,460,92,1,3,2,2,21.59531,3,100,150,1.5,0,6,4,0,0,0,0,0,0,0,0,0,1,,,,,112.5,0
13,1,1,13,4,0,0,1,2,1,8,2,3,1,590,35,1,2,1,1,35,1,1,35,1,1,0,0,0,-99,4,0,0,0,670,134,1,4,3,3,28.442928,2,200,10,.050000001,0,1,1,1,0,0,0,0,0,1,0,0,4,,,,1.075,,1
13,1,2,13,4,0,0,1,2,1,8,2,3,1,590,35,1,2,2,3,35,1,1,35,1,1,0,0,0,-99,4,0,0,0,670,134,1,4,3,3,28.442928,2,200,10,.050000001,0,1,1,0,1,0,0,0,0,1,0,0,4,,,,1.075,,1
13,2,1,13,4,0,0,1,2,1,8,2,2,3,0,35,3,1,6,3,30,4,1,0,0,0,0,0,0,-99,6,0,0,0,45,9,1,4,3,3,28.442928,2,200,10,.050000001,0,1,1,0,0,0,0,0,0,0,0,0,1,,,,1.075,,0
13,2,2,13,4,0,0,1,2,1,8,2,2,3,0,35,3,1,2,1,30,4,1,0,0,0,0,0,0,-99,6,0,0,0,45,9,1,4,3,3,28.442928,2,200,10,.050000001,0,1,1,0,0,0,0,0,0,0,0,0,1,,,,1.075,,0
13,3,1,13,4,0,0,1,2,1,8,2,2,7,0,35,3,1,6,3,30,4,1,0,0,0,0,0,0,-99,5,0,0,0,45,9,1,4,3,3,28.442928,2,200,10,.050000001,0,1,1,0,0,0,1,0,0,0,1,0,3,,,,1.075,,1
13,3,2,13,4,0,0,1,2,1,8,2,2,7,0,35,3,1,1,3,30,4,1,0,0,0,0,0,0,-99,5,0,0,0,45,9,1,4,3,3,28.442928,2,200,10,.050000001,0,1,1,0,0,1,0,0,0,0,1,0,3,,,,1.075,,1
13,4,1,13,4,0,0,1,2,1,8,2,2,2,0,35,3,1,6,1,35,6,1,0,0,0,0,0,0,-99,6,0,0,0,45,9,1,4,3,3,28.442928,2,200,10,.050000001,0,1,1,0,0,0,1,0,0,0,1,0,3,,,,1.075,,1
13,4,2,13,4,0,0,1,2,1,8,2,2,2,0,35,3,1,1,2,35,6,1,0,0,0,0,0,0,-99,6,0,0,0,45,9,1,4,3,3,28.442928,2,200,10,.050000001,0,1,1,0,0,1,0,0,0,0,1,0,3,,,,1.075,,1
13,5,1,13,4,0,0,1,2,1,8,2,3,7,0,35,1,2,2,3,35,3,3,30,4,1,185,111.666666666666,0,-99,2,100,200,100,175,35,1,4,3,3,28.442928,2,200,10,.050000001,0,1,1,0,0,0,0,0,0,0,0,0,1,,,,1.075,,0
13,5,2,13,4,0,0,1,2,1,8,2,3,7,0,35,1,2,3,3,35,3,3,30,4,1,185,111.666666666666,0,-99,2,100,200,100,175,35,1,4,3,3,28.442928,2,200,10,.050000001,0,1,1,0,0,0,0,0,0,0,0,0,1,,,,1.075,,0
14,1,1,14,4,0,0,2,2,2,8,1,3,2,300,50,1,2,1,2,35,1,2,0,0,0,0,0,0,-99,4,0,0,0,345,69,1,4,3,3,28.442928,2,200,300,1.5,30,1,2,1,0,0,0,0,0,1,0,0,4,,,,1.075,,1
14,1,2,14,4,0,0,2,2,2,8,1,3,2,300,20,1,2,2,4,35,1,2,0,0,0,0,0,0,-99,4,0,0,0,345,69,1,4,3,3,28.442928,2,200,300,1.5,30,1,2,0,1,0,0,0,0,1,0,0,4,,,,1.075,,1
14,2,1,14,4,0,0,2,2,2,8,1,2,4,0,35,3,1,6,4,30,4,2,0,0,0,0,0,0,-99,6,0,0,0,45,9,1,4,3,3,28.442928,2,200,300,1.5,0,1,2,0,0,0,0,0,0,0,0,0,1,,,,1.075,,0
14,2,2,14,4,0,0,2,2,2,8,1,2,4,0,35,3,1,2,2,30,4,2,0,0,0,0,0,0,-99,6,0,0,0,45,9,1,4,3,3,28.442928,2,200,300,1.5,0,1,2,0,0,0,0,0,0,0,0,0,1,,,,1.075,,0
14,3,1,14,4,0,0,2,2,2,8,1,2,8,0,35,3,1,6,4,30,4,2,30,4,2,0,0,0,-99,5,0,0,0,75,15,1,4,3,3,28.442928,2,200,300,1.5,0,1,2,0,0,0,1,0,0,0,1,0,3,,,,1.075,,1
14,3,2,14,4,0,0,2,2,2,8,1,2,8,0,35,3,1,1,4,30,4,2,30,4,2,0,0,0,-99,5,0,0,0,75,15,1,4,3,3,28.442928,2,200,300,1.5,0,1,2,0,0,1,0,0,0,0,1,0,3,,,,1.075,,1
14,4,1,14,4,0,0,2,2,2,8,1,2,1,0,35,3,1,6,2,35,6,2,0,0,0,0,0,0,-99,6,0,0,0,45,9,1,4,3,3,28.442928,2,200,300,1.5,0,1,2,0,0,0,1,0,0,0,1,0,3,,,,1.075,,1
14,4,2,14,4,0,0,2,2,2,8,1,2,1,0,35,3,1,1,1,35,6,2,0,0,0,0,0,0,-99,6,0,0,0,45,9,1,4,3,3,28.442928,2,200,300,1.5,0,1,2,0,0,1,0,0,0,0,1,0,3,,,,1.075,,1
14,5,1,14,4,0,0,2,2,2,8,1,3,8,0,35,1,2,2,4,35,3,4,35,6,2,185,111.666666666666,0,-99,2,200,0,0,280,56,1,4,3,3,28.442928,2,200,300,1.5,0,1,2,0,0,0,0,0,0,0,0,0,1,,,,1.075,,0
14,5,2,14,4,0,0,2,2,2,8,1,3,8,0,35,1,2,3,4,35,3,4,35,6,2,185,111.666666666666,0,-99,2,200,0,0,280,56,1,4,3,3,28.442928,2,200,300,1.5,0,1,2,0,0,0,0,0,0,0,0,0,1,,,,1.075,,0
15,1,1,15,4,0,0,3,2,3,7,2,2,6,350,35,3,1,5,1,35,2,2,35,2,2,0,0,0,-99,4,0,0,0,440,88,1,4,4,3,32.391392,2,200,250,1.25,0,1,3,0,0,0,0,0,0,0,0,0,1,,,,1.075,,1
15,1,2,15,4,0,0,3,2,3,7,2,2,6,350,35,3,1,2,2,35,2,2,35,2,2,0,0,0,-99,4,0,0,0,440,88,1,4,4,3,32.391392,2,200,250,1.25,0,1,3,0,0,0,0,0,0,0,0,0,1,,,,1.075,,1
15,2,1,15,4,0,0,3,2,3,7,2,3,1,0,35,1,2,1,3,35,3,1,0,0,0,0,0,0,-99,6,0,0,0,55,11,1,4,4,3,32.391392,2,200,250,1.25,0,1,3,1,0,0,0,0,0,1,0,0,4,,,,1.075,,1
15,2,2,15,4,0,0,3,2,3,7,2,3,1,0,35,1,2,3,1,35,3,1,0,0,0,0,0,0,-99,6,0,0,0,55,11,1,4,4,3,32.391392,2,200,250,1.25,0,1,3,0,1,0,0,0,0,1,0,0,4,,,,1.075,,1
15,3,1,15,4,0,0,3,2,3,7,2,3,3,0,35,1,2,1,1,35,2,3,0,0,0,0,0,0,-99,5,0,0,0,55,11,1,4,4,3,32.391392,2,200,250,1.25,0,1,3,0,0,1,0,0,0,0,1,0,3,,,,1.075,,0
15,3,2,15,4,0,0,3,2,3,7,2,3,3,0,35,1,2,2,3,35,2,3,0,0,0,0,0,0,-99,5,0,0,0,55,11,1,4,4,3,32.391392,2,200,250,1.25,0,1,3,0,0,0,1,0,0,0,1,0,3,,,,1.075,,0
15,4,1,15,4,0,0,3,2,3,7,2,2,8,0,35,3,1,6,3,20,6,3,20,6,3,0,0,0,-99,6,0,0,0,75,15,1,4,4,3,32.391392,2,200,250,1.25,0,1,3,0,0,0,0,0,0,0,0,0,1,,,,1.075,,0
15,4,2,15,4,0,0,3,2,3,7,2,2,8,0,35,3,1,3,4,20,6,3,20,6,3,0,0,0,-99,6,0,0,0,75,15,1,4,4,3,32.391392,2,200,250,1.25,0,1,3,0,0,0,0,0,0,0,0,0,1,,,,1.075,,0
15,5,1,15,4,0,0,3,2,3,7,2,3,4,0,35,1,2,1,4,20,2,1,20,6,3,180,123.333333333333,0,-99,2,65,185,65,140,28,1,4,4,3,32.391392,2,200,250,1.25,0,1,3,0,0,1,0,0,0,0,1,0,3,,,,1.075,,0
15,5,2,15,4,0,0,3,2,3,7,2,3,4,0,35,1,2,2,1,20,2,1,20,6,3,180,123.333333333333,0,-99,2,65,185,65,140,28,1,4,4,3,32.391392,2,200,250,1.25,0,1,3,0,0,0,1,0,0,0,1,0,3,,,,1.075,,0
16,1,1,16,4,0,0,4,2,4,7,1,2,5,300,50,3,1,5,2,40,2,1,0,0,0,0,0,0,-99,4,0,0,0,345,69,1,4,3,3,36.759289,2,200,300,1.5,30,1,4,0,0,0,0,0,0,0,0,0,1,,,,1.075,,0
16,1,2,16,4,0,0,4,2,4,7,1,2,5,300,20,3,1,2,1,40,2,1,0,0,0,0,0,0,-99,4,0,0,0,345,69,1,4,3,3,36.759289,2,200,300,1.5,30,1,4,0,0,0,0,0,0,0,0,0,1,,,,1.075,,0
16,2,1,16,4,0,0,4,2,4,7,1,3,2,0,40,1,2,1,4,35,3,2,0,0,0,0,0,0,-99,6,0,0,0,45,9,1,4,3,3,36.759289,2,200,300,1.5,10,1,4,1,0,0,0,0,0,1,0,0,4,,,,1.075,,1
16,2,2,16,4,0,0,4,2,4,7,1,3,2,0,30,1,2,3,2,35,3,2,0,0,0,0,0,0,-99,6,0,0,0,45,9,1,4,3,3,36.759289,2,200,300,1.5,10,1,4,0,1,0,0,0,0,1,0,0,4,,,,1.075,,1
16,3,1,16,4,0,0,4,2,4,7,1,3,4,0,35,1,2,1,2,70,2,4,35,3,2,0,0,0,-99,5,0,0,0,80,16,1,4,3,3,36.759289,2,200,300,1.5,0,1,4,0,0,1,0,0,0,0,1,0,3,,,,1.075,,1
16,3,2,16,4,0,0,4,2,4,7,1,3,4,0,35,1,2,2,4,70,2,4,35,3,2,0,0,0,-99,5,0,0,0,80,16,1,4,3,3,36.759289,2,200,300,1.5,0,1,4,0,0,0,1,0,0,0,1,0,3,,,,1.075,,1
16,4,1,16,4,0,0,4,2,4,7,1,2,7,0,35,3,1,6,4,10,6,4,70,2,4,0,0,0,-99,6,0,0,0,115,23,1,4,3,3,36.759289,2,200,300,1.5,0,1,4,0,0,0,0,0,0,0,0,0,1,,,,1.075,,0
16,4,2,16,4,0,0,4,2,4,7,1,2,7,0,35,3,1,3,3,10,6,4,70,2,4,0,0,0,-99,6,0,0,0,115,23,1,4,3,3,36.759289,2,200,300,1.5,0,1,4,0,0,0,0,0,0,0,0,0,1,,,,1.075,,0
16,5,1,16,4,0,0,4,2,4,7,1,3,3,0,35,1,2,1,3,35,2,2,35,3,2,163.333333333333,128.333333333333,0,-99,2,185,0,0,265,53,1,4,3,3,36.759289,2,200,300,1.5,0,1,4,0,0,1,0,0,0,0,1,0,3,,,,1.075,,1
16,5,2,16,4,0,0,4,2,4,7,1,3,3,0,35,1,2,2,2,35,2,2,35,3,2,163.333333333333,128.333333333333,0,-99,2,185,0,0,265,53,1,4,3,3,36.759289,2,200,300,1.5,0,1,4,0,0,0,1,0,0,0,1,0,3,,,,1.075,,1
17,1,1,17,5,0,0,5,2,1,10,2,3,6,300,35,1,2,2,2,35,2,2,0,0,0,0,0,0,-99,5,0,0,0,365,73,1,5,5,3,32.391392,2,200,300,1.5,0,2,1,0,0,1,0,0,0,0,1,0,3,,,,.66477275,,1
17,1,2,17,5,0,0,5,2,1,10,2,3,6,300,35,1,2,4,3,35,2,2,0,0,0,0,0,0,-99,5,0,0,0,365,73,1,5,5,3,32.391392,2,200,300,1.5,0,2,1,0,0,0,1,0,0,0,1,0,3,,,,.66477275,,1
17,2,1,17,5,0,0,5,2,1,10,2,3,7,0,35,1,2,1,1,35,3,3,0,0,0,0,0,0,-99,6,0,0,0,65,13,1,5,5,3,32.391392,2,200,300,1.5,0,2,1,0,0,0,0,0,0,0,0,0,1,,,,.66477275,,1
17,2,2,17,5,0,0,5,2,1,10,2,3,7,0,35,1,2,3,3,35,3,3,0,0,0,0,0,0,-99,6,0,0,0,65,13,1,5,5,3,32.391392,2,200,300,1.5,0,2,1,0,0,0,0,0,0,0,0,0,1,,,,.66477275,,1
17,3,1,17,5,0,0,5,2,1,10,2,3,1,0,70,1,2,2,1,35,3,3,35,2,2,0,0,0,-99,4,0,0,0,100,20,1,5,5,3,32.391392,2,200,300,1.5,70,2,1,1,0,0,0,0,0,1,0,0,4,,,,.66477275,,1
17,3,2,17,5,0,0,5,2,1,10,2,3,1,0,0,1,2,3,3,35,3,3,35,2,2,0,0,0,-99,4,0,0,0,100,20,1,5,5,3,32.391392,2,200,300,1.5,70,2,1,0,1,0,0,0,0,1,0,0,4,,,,.66477275,,1
17,4,1,17,5,0,0,5,2,1,10,2,3,5,0,0,1,2,3,1,30,5,1,35,2,2,0,0,0,-99,3,0,0,0,100,20,1,5,5,3,32.391392,2,200,300,1.5,70,2,1,0,1,0,0,0,0,1,0,0,4,,,,.66477275,,1
17,4,2,17,5,0,0,5,2,1,10,2,3,5,0,70,1,2,2,1,30,5,1,35,2,2,0,0,0,-99,3,0,0,0,100,20,1,5,5,3,32.391392,2,200,300,1.5,70,2,1,1,0,0,0,0,0,1,0,0,4,,,,.66477275,,1
17,5,1,17,5,0,0,5,2,1,10,2,2,5,0,35,3,1,6,1,30,5,1,30,5,1,180,123.333333333333,0,-99,1,100,170,100,195,39,1,5,5,3,32.391392,2,200,300,1.5,0,2,1,0,0,0,0,0,0,0,0,0,1,,,,.66477275,,1
17,5,2,17,5,0,0,5,2,1,10,2,2,5,0,35,3,1,3,1,30,5,1,30,5,1,180,123.333333333333,0,-99,1,100,170,100,195,39,1,5,5,3,32.391392,2,200,300,1.5,0,2,1,0,0,0,0,0,0,0,0,0,1,,,,.66477275,,1
18,1,1,18,5,0,0,6,2,2,10,1,3,5,55,35,1,2,2,1,30,2,1,0,0,0,0,0,0,-99,5,0,0,0,100,20,1,5,3,3,33.227051,2,20,5,.25,0,2,2,0,0,1,0,0,0,0,1,0,3,,,,.66477275,,0
18,1,2,18,5,0,0,6,2,2,10,1,3,5,55,35,1,2,4,4,30,2,1,0,0,0,0,0,0,-99,5,0,0,0,100,20,1,5,3,3,33.227051,2,20,5,.25,0,2,2,0,0,0,1,0,0,0,1,0,3,,,,.66477275,,0
18,2,1,18,5,0,0,6,2,2,10,1,3,8,0,30,1,2,1,2,50,3,4,50,3,4,0,0,0,-99,6,0,0,0,95,19,1,5,3,3,33.227051,2,20,5,.25,10,2,2,0,0,0,0,0,0,0,0,0,1,,,,.66477275,,0
18,2,2,18,5,0,0,6,2,2,10,1,3,8,0,40,1,2,3,4,50,3,4,50,3,4,0,0,0,-99,6,0,0,0,95,19,1,5,3,3,33.227051,2,20,5,.25,10,2,2,0,0,0,0,0,0,0,0,0,1,,,,.66477275,,0
18,3,1,18,5,0,0,6,2,2,10,1,3,2,0,40,1,2,2,2,60,3,4,0,0,0,0,0,0,-99,4,0,0,0,45,9,1,5,3,3,33.227051,2,20,5,.25,10,2,2,1,0,0,0,0,0,1,0,0,4,,,,.66477275,,1
18,3,2,18,5,0,0,6,2,2,10,1,3,2,0,30,1,2,3,4,60,3,4,0,0,0,0,0,0,-99,4,0,0,0,45,9,1,5,3,3,33.227051,2,20,5,.25,10,2,2,0,1,0,0,0,0,1,0,0,4,,,,.66477275,,1
18,4,1,18,5,0,0,6,2,2,10,1,3,6,0,35,1,2,3,2,30,5,2,30,2,1,0,0,0,-99,3,0,0,0,75,15,1,5,3,3,33.227051,2,20,5,.25,0,2,2,0,1,0,0,0,0,1,0,0,4,,,,.66477275,,1
18,4,2,18,5,0,0,6,2,2,10,1,3,6,0,35,1,2,2,2,30,5,2,30,2,1,0,0,0,-99,3,0,0,0,75,15,1,5,3,3,33.227051,2,20,5,.25,0,2,2,1,0,0,0,0,0,1,0,0,4,,,,.66477275,,1
18,5,1,18,5,0,0,6,2,2,10,1,2,6,0,50,3,1,6,2,30,5,2,30,5,2,173.333333333333,122.166666666666,0,-99,1,170,0,0,245,49,1,5,3,3,33.227051,2,20,5,.25,30,2,2,0,0,0,0,0,0,0,0,0,1,,,,.66477275,,1
18,5,2,18,5,0,0,6,2,2,10,1,2,6,0,20,3,1,3,2,30,5,2,30,5,2,173.333333333333,122.166666666666,0,-99,1,170,0,0,245,49,1,5,3,3,33.227051,2,20,5,.25,30,2,2,0,0,0,0,0,0,0,0,0,1,,,,.66477275,,1
19,1,1,19,5,0,0,7,2,3,9,2,2,7,115,35,3,1,6,3,45,3,3,0,0,0,0,0,0,-99,5,0,0,0,180,36,1,5,5,3,35.118595,2,55,50,.90909094,0,2,3,0,0,0,0,0,0,0,0,0,1,,,,.66477275,,0
19,1,2,19,5,0,0,7,2,3,9,2,2,7,115,35,3,1,3,3,45,3,3,0,0,0,0,0,0,-99,5,0,0,0,180,36,1,5,5,3,35.118595,2,55,50,.90909094,0,2,3,0,0,0,0,0,0,0,0,0,1,,,,.66477275,,0
19,2,1,19,5,0,0,7,2,3,9,2,2,6,0,35,3,1,6,1,30,5,3,0,0,0,0,0,0,-99,6,0,0,0,65,13,1,5,5,3,35.118595,2,55,50,.90909094,0,2,3,0,0,0,1,0,0,0,1,0,3,,,,.66477275,,0
19,2,2,19,5,0,0,7,2,3,9,2,2,6,0,35,3,1,2,4,30,5,3,0,0,0,0,0,0,-99,6,0,0,0,65,13,1,5,5,3,35.118595,2,55,50,.90909094,0,2,3,0,0,1,0,0,0,0,1,0,3,,,,.66477275,,0
19,3,1,19,5,0,0,7,2,3,9,2,2,6,0,35,3,1,6,1,30,5,3,0,0,0,0,0,0,-99,4,0,0,0,65,13,1,5,5,3,35.118595,2,55,50,.90909094,0,2,3,0,0,0,0,0,0,0,0,0,1,,,,.66477275,,0
19,3,2,19,5,0,0,7,2,3,9,2,2,6,0,35,3,1,3,2,30,5,3,0,0,0,0,0,0,-99,4,0,0,0,65,13,1,5,5,3,35.118595,2,55,50,.90909094,0,2,3,0,0,0,0,0,0,0,0,0,1,,,,.66477275,,0
19,4,1,19,5,0,0,7,2,3,9,2,3,3,0,30,1,2,2,3,30,5,3,45,3,3,0,0,0,-99,3,0,0,0,110,22,1,5,5,3,35.118595,2,55,50,.90909094,10,2,3,1,0,0,0,0,0,1,0,0,4,,,,.66477275,,1
19,4,2,19,5,0,0,7,2,3,9,2,3,3,0,40,1,2,1,3,30,5,3,45,3,3,0,0,0,-99,3,0,0,0,110,22,1,5,5,3,35.118595,2,55,50,.90909094,10,2,3,0,1,0,0,0,0,1,0,0,4,,,,.66477275,,1
19,5,1,19,5,0,0,7,2,3,9,2,2,1,0,35,3,1,6,3,30,5,3,45,3,3,176.666666666666,131.666666666666,0,-99,1,170,170,170,280,56,1,5,5,3,35.118595,2,55,50,.90909094,0,2,3,0,0,0,0,0,0,0,0,0,1,,,,.66477275,,0
19,5,2,19,5,0,0,7,2,3,9,2,2,1,0,35,3,1,1,1,30,5,3,45,3,3,176.666666666666,131.666666666666,0,-99,1,170,170,170,280,56,1,5,5,3,35.118595,2,55,50,.90909094,0,2,3,0,0,0,0,0,0,0,0,0,1,,,,.66477275,,0
20,1,1,20,5,0,0,8,2,4,9,1,2,8,300,35,3,1,6,4,35,3,4,0,0,0,0,0,0,-99,5,0,0,0,365,73,1,5,5,3,28.442928,2,100,0,0,0,2,4,0,0,0,0,0,0,0,0,0,1,,,,.66477275,,1
20,1,2,20,5,0,0,8,2,4,9,1,2,8,300,35,3,1,3,4,35,3,4,0,0,0,0,0,0,-99,5,0,0,0,365,73,1,5,5,3,28.442928,2,100,0,0,0,2,4,0,0,0,0,0,0,0,0,0,1,,,,.66477275,,1
20,2,1,20,5,0,0,8,2,4,9,1,2,5,0,35,3,1,6,2,30,5,4,0,0,0,0,0,0,-99,6,0,0,0,65,13,1,5,5,3,28.442928,2,100,0,0,0,2,4,0,0,0,1,0,0,0,1,0,3,,,,.66477275,,1
20,2,2,20,5,0,0,8,2,4,9,1,2,5,0,35,3,1,2,3,30,5,4,0,0,0,0,0,0,-99,6,0,0,0,65,13,1,5,5,3,28.442928,2,100,0,0,0,2,4,0,0,1,0,0,0,0,1,0,3,,,,.66477275,,1
20,3,1,20,5,0,0,8,2,4,9,1,2,5,0,35,3,1,6,2,30,5,4,0,0,0,0,0,0,-99,4,0,0,0,65,13,1,5,5,3,28.442928,2,100,0,0,0,2,4,0,0,0,0,0,0,0,0,0,1,,,,.66477275,,1
20,3,2,20,5,0,0,8,2,4,9,1,2,5,0,35,3,1,3,1,30,5,4,0,0,0,0,0,0,-99,4,0,0,0,65,13,1,5,5,3,28.442928,2,100,0,0,0,2,4,0,0,0,0,0,0,0,0,0,1,,,,.66477275,,1
20,4,1,20,5,0,0,8,2,4,9,1,3,4,0,35,1,2,2,4,30,5,4,0,0,0,0,0,0,-99,3,0,0,0,65,13,1,5,5,3,28.442928,2,100,0,0,0,2,4,1,0,0,0,0,0,1,0,0,4,,,,.66477275,,1
20,4,2,20,5,0,0,8,2,4,9,1,3,4,0,35,1,2,1,4,30,5,4,0,0,0,0,0,0,-99,3,0,0,0,65,13,1,5,5,3,28.442928,2,100,0,0,0,2,4,0,1,0,0,0,0,1,0,0,4,,,,.66477275,,1
20,5,1,20,5,0,0,8,2,4,9,1,2,2,0,35,3,1,6,4,30,5,4,30,5,4,185,111.666666666666,0,-99,1,170,0,0,265,53,1,5,5,3,28.442928,2,100,0,0,0,2,4,0,0,0,0,0,0,0,0,0,1,,,,.66477275,,1
20,5,2,20,5,0,0,8,2,4,9,1,2,2,0,35,3,1,1,2,30,5,4,30,5,4,185,111.666666666666,0,-99,1,170,0,0,265,53,1,5,5,3,28.442928,2,100,0,0,0,2,4,0,0,0,0,0,0,0,0,0,1,,,,.66477275,,1
21,1,1,21,6,0,0,9,2,1,12,2,3,3,300,35,1,2,1,3,35,1,3,0,0,0,0,0,0,-99,3,0,0,0,340,68,1,6,3,2,41.743954,2,200,300,1.5,0,3,1,0,1,0,0,0,0,1,0,0,4,,,,1.3333334,,1
21,1,2,21,6,0,0,9,2,1,12,2,3,3,300,35,1,2,3,1,35,1,3,0,0,0,0,0,0,-99,3,0,0,0,340,68,1,6,3,2,41.743954,2,200,300,1.5,0,3,1,1,0,0,0,0,0,1,0,0,4,,,,1.3333334,,1
21,2,1,21,6,0,0,9,2,1,12,2,3,6,0,35,1,2,2,4,35,5,3,0,0,0,0,0,0,-99,3,0,0,0,40,8,1,6,3,2,41.743954,2,200,300,1.5,0,3,1,0,0,0,0,0,0,0,0,0,1,,,,1.3333334,,0
21,2,2,21,6,0,0,9,2,1,12,2,3,6,0,35,1,2,5,3,35,5,3,0,0,0,0,0,0,-99,3,0,0,0,40,8,1,6,3,2,41.743954,2,200,300,1.5,0,3,1,0,0,0,0,0,0,0,0,0,1,,,,1.3333334,,0
21,3,1,21,6,0,0,9,2,1,12,2,3,6,0,35,1,2,3,2,35,5,3,0,0,0,0,0,0,-99,4,0,0,0,40,8,1,6,3,2,41.743954,2,200,300,1.5,0,3,1,0,0,1,0,0,0,0,1,0,3,,,,1.3333334,,1
21,3,2,21,6,0,0,9,2,1,12,2,3,6,0,35,1,2,5,3,35,5,3,0,0,0,0,0,0,-99,4,0,0,0,40,8,1,6,3,2,41.743954,2,200,300,1.5,0,3,1,0,0,0,1,0,0,0,1,0,3,,,,1.3333334,,1
21,4,1,21,6,0,0,9,2,1,12,2,3,2,0,35,1,2,1,2,30,6,1,0,0,0,0,0,0,-99,5,0,0,0,40,8,1,6,3,2,41.743954,2,200,300,1.5,0,3,1,0,0,0,0,0,0,0,0,0,1,,,,1.3333334,,0
21,4,2,21,6,0,0,9,2,1,12,2,3,2,0,35,1,2,4,1,30,6,1,0,0,0,0,0,0,-99,5,0,0,0,40,8,1,6,3,2,41.743954,2,200,300,1.5,0,3,1,0,0,0,0,0,0,0,0,0,1,,,,1.3333334,,0
21,5,1,21,6,0,0,9,2,1,12,2,3,5,0,35,1,2,3,1,35,5,1,35,1,3,164.333333333333,149.333333333333,0,-99,5,100,200,100,175,35,1,6,3,2,41.743954,2,200,300,1.5,0,3,1,1,0,0,0,0,0,1,0,0,4,,,,1.3333334,,1
21,5,2,21,6,0,0,9,2,1,12,2,3,5,0,35,1,2,5,1,35,5,1,35,1,3,164.333333333333,149.333333333333,0,-99,5,100,200,100,175,35,1,6,3,2,41.743954,2,200,300,1.5,0,3,1,0,1,0,0,0,0,1,0,0,4,,,,1.3333334,,1
22,1,1,22,6,0,0,10,2,2,12,1,3,4,0,70,1,2,1,4,35,1,4,0,0,0,0,0,0,-99,3,0,0,0,50,10,1,6,4,2,28.442928,2,0,0,,70,3,2,0,1,0,0,0,0,1,0,0,4,,,,1.3333334,,1
22,1,2,22,6,0,0,10,2,2,12,1,3,4,0,0,1,2,3,2,35,1,4,0,0,0,0,0,0,-99,3,0,0,0,50,10,1,6,4,2,28.442928,2,0,0,,70,3,2,1,0,0,0,0,0,1,0,0,4,,,,1.3333334,,1
22,2,1,22,6,0,0,10,2,2,12,1,3,5,0,35,1,2,2,3,35,5,4,35,5,4,0,0,0,-99,3,0,0,0,85,17,1,6,4,2,28.442928,2,0,0,,0,3,2,0,0,0,0,0,0,0,0,0,1,,,,1.3333334,,1
22,2,2,22,6,0,0,10,2,2,12,1,3,5,0,35,1,2,5,4,35,5,4,35,5,4,0,0,0,-99,3,0,0,0,85,17,1,6,4,2,28.442928,2,0,0,,0,3,2,0,0,0,0,0,0,0,0,0,1,,,,1.3333334,,1
22,3,1,22,6,0,0,10,2,2,12,1,3,5,0,35,1,2,3,1,35,5,4,35,5,4,0,0,0,-99,4,0,0,0,85,17,1,6,4,2,28.442928,2,0,0,,0,3,2,0,0,1,0,0,0,0,1,0,3,,,,1.3333334,,1
22,3,2,22,6,0,0,10,2,2,12,1,3,5,0,35,1,2,5,4,35,5,4,35,5,4,0,0,0,-99,4,0,0,0,85,17,1,6,4,2,28.442928,2,0,0,,0,3,2,0,0,0,1,0,0,0,1,0,3,,,,1.3333334,,1
22,4,1,22,6,0,0,10,2,2,12,1,3,1,0,35,1,2,1,1,30,6,2,35,1,4,0,0,0,-99,5,0,0,0,85,17,1,6,4,2,28.442928,2,0,0,,0,3,2,0,0,0,0,0,0,0,0,0,1,,,,1.3333334,,1
22,4,2,22,6,0,0,10,2,2,12,1,3,1,0,35,1,2,4,2,30,6,2,35,1,4,0,0,0,-99,5,0,0,0,85,17,1,6,4,2,28.442928,2,0,0,,0,3,2,0,0,0,0,0,0,0,0,0,1,,,,1.3333334,,1
22,5,1,22,6,0,0,10,2,2,12,1,3,6,0,0,1,2,3,2,50,5,2,35,5,4,185,111.666666666666,0,-99,5,200,0,0,285,57,1,6,4,2,28.442928,2,0,0,,70,3,2,1,0,0,0,0,0,1,0,0,4,,,,1.3333334,,1
22,5,2,22,6,0,0,10,2,2,12,1,3,6,0,70,1,2,5,2,50,5,2,35,5,4,185,111.666666666666,0,-99,5,200,0,0,285,57,1,6,4,2,28.442928,2,0,0,,70,3,2,0,1,0,0,0,0,1,0,0,4,,,,1.3333334,,1
23,1,1,23,6,0,0,11,2,3,11,2,3,7,300,35,1,2,3,3,25,3,3,0,0,0,0,0,0,-99,3,0,0,0,340,68,1,6,3,2,30.773525,2,150,150,1,0,3,3,1,0,0,0,0,0,1,0,0,4,,,,1.3333334,,1
23,1,2,23,6,0,0,11,2,3,11,2,3,7,300,35,1,2,5,3,25,3,3,0,0,0,0,0,0,-99,3,0,0,0,340,68,1,6,3,2,30.773525,2,150,150,1,0,3,3,0,1,0,0,0,0,1,0,0,4,,,,1.3333334,,1
23,2,1,23,6,0,0,11,2,3,11,2,3,3,0,40,1,2,2,1,35,4,1,25,3,3,0,0,0,-99,3,0,0,0,65,13,1,6,3,2,30.773525,2,150,150,1,10,3,3,0,0,0,0,0,0,0,0,0,1,,,,1.3333334,,0
23,2,2,23,6,0,0,11,2,3,11,2,3,3,0,30,1,2,4,1,35,4,1,25,3,3,0,0,0,-99,3,0,0,0,65,13,1,6,3,2,30.773525,2,150,150,1,10,3,3,0,0,0,0,0,0,0,0,0,1,,,,1.3333334,,0
23,3,1,23,6,0,0,11,2,3,11,2,3,7,0,35,1,2,1,3,35,4,1,35,4,1,0,0,0,-99,4,0,0,0,75,15,1,6,3,2,30.773525,2,150,150,1,0,3,3,0,0,0,0,0,0,0,0,0,1,,,,1.3333334,,0
23,3,2,23,6,0,0,11,2,3,11,2,3,7,0,35,1,2,4,1,35,4,1,35,4,1,0,0,0,-99,4,0,0,0,75,15,1,6,3,2,30.773525,2,150,150,1,0,3,3,0,0,0,0,0,0,0,0,0,1,,,,1.3333334,,0
23,4,1,23,6,0,0,11,2,3,11,2,3,8,0,50,1,2,3,4,30,6,3,25,3,3,0,0,0,-99,5,0,0,0,65,13,1,6,3,2,30.773525,2,150,150,1,30,3,3,0,0,1,0,0,0,0,1,0,3,,,,1.3333334,,0
23,4,2,23,6,0,0,11,2,3,11,2,3,8,0,20,1,2,4,3,30,6,3,25,3,3,0,0,0,-99,5,0,0,0,65,13,1,6,3,2,30.773525,2,150,150,1,30,3,3,0,0,0,1,0,0,0,1,0,3,,,,1.3333334,,0
23,5,1,23,6,0,0,11,2,3,11,2,3,1,0,40,1,2,1,1,35,5,3,35,4,1,180.333333333333,117.5,0,-99,5,100,200,100,175,35,1,6,3,2,30.773525,2,150,150,1,10,3,3,0,0,0,0,0,0,0,0,0,1,,,,1.3333334,,0
23,5,2,23,6,0,0,11,2,3,11,2,3,1,0,30,1,2,5,3,35,5,3,35,4,1,180.333333333333,117.5,0,-99,5,100,200,100,175,35,1,6,3,2,30.773525,2,150,150,1,10,3,3,0,0,0,0,0,0,0,0,0,1,,,,1.3333334,,0
24,1,1,24,6,0,0,12,2,4,11,1,3,8,150,20,1,2,3,4,35,3,4,0,0,0,0,0,0,-99,3,0,0,0,200,40,1,6,4,2,25.820992,2,100,150,1.5,30,3,4,1,0,0,0,0,0,1,0,0,4,,,,1.3333334,,1
24,1,2,24,6,0,0,12,2,4,11,1,3,8,150,50,1,2,5,4,35,3,4,0,0,0,0,0,0,-99,3,0,0,0,200,40,1,6,4,2,25.820992,2,100,150,1.5,30,3,4,0,1,0,0,0,0,1,0,0,4,,,,1.3333334,,1
24,2,1,24,6,0,0,12,2,4,11,1,3,4,0,35,1,2,2,2,35,4,2,0,0,0,0,0,0,-99,3,0,0,0,50,10,1,6,4,2,25.820992,2,100,150,1.5,0,3,4,0,0,0,0,0,0,0,0,0,1,,,,1.3333334,,1
24,2,2,24,6,0,0,12,2,4,11,1,3,4,0,35,1,2,4,2,35,4,2,0,0,0,0,0,0,-99,3,0,0,0,50,10,1,6,4,2,25.820992,2,100,150,1.5,0,3,4,0,0,0,0,0,0,0,0,0,1,,,,1.3333334,,1
24,3,1,24,6,0,0,12,2,4,11,1,3,8,0,0,1,2,1,4,35,4,2,35,3,4,0,0,0,-99,4,0,0,0,85,17,1,6,4,2,25.820992,2,100,150,1.5,70,3,4,0,0,0,0,0,0,0,0,0,1,,,,1.3333334,,1
24,3,2,24,6,0,0,12,2,4,11,1,3,8,0,70,1,2,4,2,35,4,2,35,3,4,0,0,0,-99,4,0,0,0,85,17,1,6,4,2,25.820992,2,100,150,1.5,70,3,4,0,0,0,0,0,0,0,0,0,1,,,,1.3333334,,1
24,4,1,24,6,0,0,12,2,4,11,1,3,7,0,60,1,2,3,3,30,6,4,35,3,4,0,0,0,-99,5,0,0,0,85,17,1,6,4,2,25.820992,2,100,150,1.5,50,3,4,0,0,1,0,0,0,0,1,0,3,,,,1.3333334,,1
24,4,2,24,6,0,0,12,2,4,11,1,3,7,0,10,1,2,4,4,30,6,4,35,3,4,0,0,0,-99,5,0,0,0,85,17,1,6,4,2,25.820992,2,100,150,1.5,50,3,4,0,0,0,1,0,0,0,1,0,3,,,,1.3333334,,1
24,5,1,24,6,0,0,12,2,4,11,1,3,2,0,20,1,2,1,2,35,5,4,35,3,4,180,100,0,-99,5,200,0,0,285,57,1,6,4,2,25.820992,2,100,150,1.5,30,3,4,0,0,0,0,0,0,0,0,0,1,,,,1.3333334,,1
24,5,2,24,6,0,0,12,2,4,11,1,3,2,0,50,1,2,5,4,35,5,4,35,3,4,180,100,0,-99,5,200,0,0,285,57,1,6,4,2,25.820992,2,100,150,1.5,30,3,4,0,0,0,0,0,0,0,0,0,1,,,,1.3333334,,1
25,1,1,1,1,0,0,1,1,1,2,2,1,2,200,35,2,3,4,2,30,1,1,0,0,0,0,0,0,-99,5,0,0,0,250,42,2,7,4,2,28.442928,2,100,100,1,0,4,1,0,0,1,0,0,0,0,1,0,3,,0,-10,,72.25,0
25,1,2,1,1,0,0,1,1,1,2,2,1,2,200,35,2,3,6,2,30,1,1,0,0,0,0,0,0,-99,5,0,0,0,250,42,2,7,4,2,28.442928,2,100,100,1,0,4,1,0,0,0,1,0,0,0,1,0,3,,0,-10,,72.25,0
25,2,1,1,1,0,0,1,1,1,2,2,1,7,200,35,2,3,5,1,1,5,1,0,0,0,0,0,0,-99,6,0,0,0,250,42,2,7,4,2,28.442928,2,100,100,1,0,4,1,0,0,0,0,0,0,0,0,0,1,,,,,72.25,1
25,2,2,1,1,0,0,1,1,1,2,2,1,7,200,35,2,3,5,3,1,5,1,0,0,0,0,0,0,-99,6,0,0,0,250,42,2,7,4,2,28.442928,2,100,100,1,0,4,1,0,0,0,0,0,0,0,0,0,1,,,,,72.25,1
25,3,1,1,1,0,0,1,1,1,2,2,1,7,200,35,2,3,1,4,50,1,4,1,5,1,0,0,0,-99,5,0,0,0,251,42,2,7,4,2,28.442928,2,100,100,1,0,4,1,0,0,0,0,1,0,0,0,1,2,0,,,,72.25,1
25,3,2,1,1,0,0,1,1,1,2,2,1,7,200,35,2,3,3,1,50,1,4,1,5,1,0,0,0,-99,5,0,0,0,251,42,2,7,4,2,28.442928,2,100,100,1,0,4,1,0,0,0,0,0,1,0,0,1,2,0,,,,72.25,1
25,4,1,1,1,0,0,1,1,1,2,2,1,4,200,35,2,3,3,1,30,1,1,1,5,1,0,0,0,-99,2,0,0,0,251,42,2,7,4,2,28.442928,2,100,100,1,0,4,1,0,0,0,0,0,0,0,0,0,1,,,,,72.25,1
25,4,2,1,1,0,0,1,1,1,2,2,1,4,200,35,2,3,6,2,30,1,1,1,5,1,0,0,0,-99,2,0,0,0,251,42,2,7,4,2,28.442928,2,100,100,1,0,4,1,0,0,0,0,0,0,0,0,0,1,,,,,72.25,1
25,5,1,1,1,0,0,1,1,1,2,2,1,4,200,35,2,3,4,3,30,1,1,30,1,1,0,0,0,-99,6,0,0,0,280,47,2,7,4,2,28.442928,2,100,100,1,0,4,1,0,0,1,0,0,0,0,1,0,3,,,,,72.25,1
25,5,2,1,1,0,0,1,1,1,2,2,1,4,200,35,2,3,5,1,30,1,1,30,1,1,0,0,0,-99,6,0,0,0,280,47,2,7,4,2,28.442928,2,100,100,1,0,4,1,0,0,0,1,0,0,0,1,0,3,,,,,72.25,1
25,6,1,1,1,0,0,1,1,1,2,2,1,6,200,35,2,3,3,4,35,4,1,50,1,4,185,111.6666667,0,-99,4,115,135,115,415,70,2,7,4,2,28.442928,2,100,100,1,0,4,1,0,1,0,0,0,0,1,0,0,4,,,,,72.25,1
25,6,2,1,1,0,0,1,1,1,2,2,1,6,200,35,2,3,4,1,35,4,1,50,1,4,185,111.6666667,0,-99,4,115,135,115,415,70,2,7,4,2,28.442928,2,100,100,1,0,4,1,1,0,0,0,0,0,1,0,0,4,,,,,72.25,1
26,1,1,2,1,0,0,2,1,2,2,1,1,1,165,35,2,3,2,1,30,1,2,0,0,0,0,0,0,-99,5,0,0,0,195,33,2,7,2,2,37.023232,2,40,5,.125,0,4,2,0,0,0,1,0,0,0,1,0,3,,0,-10,,72.25,0
26,1,2,2,1,0,0,2,1,2,2,1,1,1,165,35,2,3,4,1,30,1,2,0,0,0,0,0,0,-99,5,0,0,0,195,33,2,7,2,2,37.023232,2,40,5,.125,0,4,2,0,0,1,0,0,0,0,1,0,3,,0,-10,,72.25,0
26,2,1,2,1,0,0,2,1,2,2,1,1,4,200,35,2,3,4,4,35,4,4,30,1,2,0,0,0,-99,6,0,0,0,260,44,2,7,2,2,37.023232,2,40,5,.125,0,4,2,0,0,1,0,0,0,0,1,0,3,,,,,72.25,0
26,2,2,2,1,0,0,2,1,2,2,1,1,4,200,35,2,3,5,2,35,4,4,30,1,2,0,0,0,-99,6,0,0,0,260,44,2,7,2,2,37.023232,2,40,5,.125,0,4,2,0,0,0,1,0,0,0,1,0,3,,,,,72.25,0
26,3,1,2,1,0,0,2,1,2,2,1,1,6,200,35,2,3,3,3,35,3,3,0,0,0,0,0,0,-99,5,0,0,0,230,39,2,7,2,2,37.023232,2,40,5,.125,0,4,2,0,1,0,0,0,0,1,0,0,4,,,,,72.25,1
26,3,2,2,1,0,0,2,1,2,2,1,1,6,200,35,2,3,4,2,35,3,3,0,0,0,0,0,0,-99,5,0,0,0,230,39,2,7,2,2,37.023232,2,40,5,.125,0,4,2,1,0,0,0,0,0,1,0,0,4,,,,,72.25,1
26,4,1,2,1,0,0,2,1,2,2,1,1,6,200,35,2,3,2,1,30,1,2,30,1,2,0,0,0,-99,2,0,0,0,260,44,2,7,2,2,37.023232,2,40,5,.125,0,4,2,0,0,0,0,0,0,0,0,0,1,,,,,72.25,0
26,4,2,2,1,0,0,2,1,2,2,1,1,6,200,35,2,3,5,1,30,1,2,30,1,2,0,0,0,-99,2,0,0,0,260,44,2,7,2,2,37.023232,2,40,5,.125,0,4,2,0,0,0,0,0,0,0,0,0,1,,,,,72.25,0
26,5,1,2,1,0,0,2,1,2,2,1,1,7,200,35,2,3,5,2,30,1,2,30,1,2,0,0,0,-99,6,0,0,0,260,44,2,7,2,2,37.023232,2,40,5,.125,0,4,2,0,0,0,0,0,0,0,0,0,1,,,,,72.25,0
26,5,2,2,1,0,0,2,1,2,2,1,1,7,200,35,2,3,5,4,30,1,2,30,1,2,0,0,0,-99,6,0,0,0,260,44,2,7,2,2,37.023232,2,40,5,.125,0,4,2,0,0,0,0,0,0,0,0,0,1,,,,,72.25,0
26,6,1,2,1,0,0,2,1,2,2,1,1,7,200,35,2,3,1,3,30,3,2,30,1,2,174.1666667,137.5,0,-99,4,135,0,0,395,66,2,7,2,2,37.023232,2,40,5,.125,0,4,2,0,0,0,0,1,0,0,0,1,2,0,,,,72.25,1
26,6,2,2,1,0,0,2,1,2,2,1,1,7,200,35,2,3,3,2,30,3,2,30,1,2,174.1666667,137.5,0,-99,4,135,0,0,395,66,2,7,2,2,37.023232,2,40,5,.125,0,4,2,0,0,0,0,0,1,0,0,1,2,0,,,,72.25,1
27,1,1,3,1,0,0,3,1,3,1,2,1,4,200,40,2,3,3,3,30,1,3,0,0,0,0,0,0,-99,5,0,0,0,250,42,2,7,4,2,34.348942,2,0,0,,10,4,3,0,0,0,0,0,0,0,0,0,1,,-70,-10,,72.25,1
27,1,2,3,1,0,0,3,1,3,1,2,1,4,200,30,2,3,6,4,30,1,3,0,0,0,0,0,0,-99,5,0,0,0,250,42,2,7,4,2,34.348942,2,0,0,,10,4,3,0,0,0,0,0,0,0,0,0,1,,-70,-10,,72.25,1
27,2,1,3,1,0,0,3,1,3,1,2,1,5,200,40,2,3,2,1,0,2,1,0,0,0,0,0,0,-99,6,0,0,0,250,42,2,7,4,2,34.348942,2,0,0,,10,4,3,0,1,0,0,0,0,1,0,0,4,,,,,72.25,1
27,2,2,3,1,0,0,3,1,3,1,2,1,5,200,30,2,3,4,3,0,2,1,0,0,0,0,0,0,-99,6,0,0,0,250,42,2,7,4,2,34.348942,2,0,0,,10,4,3,1,0,0,0,0,0,1,0,0,4,,,,,72.25,1
27,3,1,3,1,0,0,3,1,3,1,2,1,3,200,0,2,3,2,2,35,2,2,0,2,1,0,0,0,-99,5,0,0,0,250,42,2,7,4,2,34.348942,2,0,0,,70,4,3,0,0,0,0,0,0,0,0,0,1,,,,,72.25,1
27,3,2,3,1,0,0,3,1,3,1,2,1,3,200,70,2,3,5,3,35,2,2,0,2,1,0,0,0,-99,5,0,0,0,250,42,2,7,4,2,34.348942,2,0,0,,70,4,3,0,0,0,0,0,0,0,0,0,1,,,,,72.25,1
27,4,1,3,1,0,0,3,1,3,1,2,1,2,200,0,2,3,4,4,30,1,3,30,1,3,0,0,0,-99,2,0,0,0,280,47,2,7,4,2,34.348942,2,0,0,,70,4,3,0,0,1,0,0,0,0,1,0,3,,,,,72.25,1
27,4,2,3,1,0,0,3,1,3,1,2,1,2,200,70,2,3,6,4,30,1,3,30,1,3,0,0,0,-99,2,0,0,0,280,47,2,7,4,2,34.348942,2,0,0,,70,4,3,0,0,0,1,0,0,0,1,0,3,,,,,72.25,1
27,5,1,3,1,0,0,3,1,3,1,2,1,3,200,70,2,3,3,3,30,1,3,0,2,1,0,0,0,-99,6,0,0,0,250,42,2,7,4,2,34.348942,2,0,0,,70,4,3,0,0,0,1,0,0,0,1,0,3,,,,,72.25,1
27,5,2,3,1,0,0,3,1,3,1,2,1,3,200,0,2,3,4,1,30,1,3,0,2,1,0,0,0,-99,6,0,0,0,250,42,2,7,4,2,34.348942,2,0,0,,70,4,3,0,0,1,0,0,0,0,1,0,3,,,,,72.25,1
27,6,1,3,1,0,0,3,1,3,1,2,2,7,200,70,3,1,3,2,40,3,2,30,1,3,177.6666667,129.3333333,0,-99,4,30,170,30,310,52,2,7,4,2,34.348942,2,0,0,,70,4,3,0,0,0,0,0,1,0,0,1,2,-70,,,,72.25,1
27,6,2,3,1,0,0,3,1,3,1,2,2,7,200,0,3,1,1,2,40,3,2,30,1,3,177.6666667,129.3333333,0,-99,4,30,170,30,310,52,2,7,4,2,34.348942,2,0,0,,70,4,3,0,0,0,0,1,0,0,0,1,2,-70,,,,72.25,1
28,1,1,4,1,0,0,4,1,4,1,1,1,6,231,35,2,3,2,3,30,1,4,0,0,0,0,0,0,-99,5,0,0,0,261,44,2,7,2,2,28.442928,2,149,180,1.2080537,0,4,4,0,0,0,0,0,0,0,0,0,1,,30,-10,,72.25,0
28,1,2,4,1,0,0,4,1,4,1,1,1,6,231,35,2,3,5,3,30,1,4,0,0,0,0,0,0,-99,5,0,0,0,261,44,2,7,2,2,28.442928,2,149,180,1.2080537,0,4,4,0,0,0,0,0,0,0,0,0,1,,30,-10,,72.25,0
28,2,1,4,1,0,0,4,1,4,1,1,1,3,200,35,2,3,3,4,35,3,4,35,3,4,0,0,0,-99,6,0,0,0,265,45,2,7,2,2,28.442928,2,149,180,1.2080537,0,4,4,0,0,0,1,0,0,0,1,0,3,,,,,72.25,0
28,2,2,4,1,0,0,4,1,4,1,1,1,3,200,35,2,3,4,2,35,3,4,35,3,4,0,0,0,-99,6,0,0,0,265,45,2,7,2,2,28.442928,2,149,180,1.2080537,0,4,4,0,0,1,0,0,0,0,1,0,3,,,,,72.25,0
28,3,1,4,1,0,0,4,1,4,1,1,2,7,200,20,3,1,3,1,30,1,4,0,0,0,0,0,0,-99,5,0,0,0,230,39,2,7,2,2,28.442928,2,149,180,1.2080537,30,4,4,0,0,0,0,0,1,0,0,1,2,30,,,,72.25,1
28,3,2,4,1,0,0,4,1,4,1,1,2,7,200,50,3,1,1,1,30,1,4,0,0,0,0,0,0,-99,5,0,0,0,230,39,2,7,2,2,28.442928,2,149,180,1.2080537,30,4,4,0,0,0,0,1,0,0,0,1,2,30,,,,72.25,1
28,4,1,4,1,0,0,4,1,4,1,1,1,1,200,35,2,3,2,3,30,1,4,30,1,4,0,0,0,-99,2,0,0,0,260,44,2,7,2,2,28.442928,2,149,180,1.2080537,0,4,4,0,0,0,1,0,0,0,1,0,3,,,,,72.25,1
28,4,2,4,1,0,0,4,1,4,1,1,1,1,200,35,2,3,4,3,30,1,4,30,1,4,0,0,0,-99,2,0,0,0,260,44,2,7,2,2,28.442928,2,149,180,1.2080537,0,4,4,0,0,1,0,0,0,0,1,0,3,,,,,72.25,1
28,5,1,4,1,0,0,4,1,4,1,1,1,5,200,69,2,3,2,2,30,1,4,30,1,4,0,0,0,-99,6,0,0,0,260,44,2,7,2,2,28.442928,2,149,180,1.2080537,68,4,4,0,1,0,0,0,0,1,0,0,4,,,,,72.25,1
28,5,2,4,1,0,0,4,1,4,1,1,1,5,200,1,2,3,4,4,30,1,4,30,1,4,0,0,0,-99,6,0,0,0,260,44,2,7,2,2,28.442928,2,149,180,1.2080537,68,4,4,1,0,0,0,0,0,1,0,0,4,,,,,72.25,1
28,6,1,4,1,0,0,4,1,4,1,1,1,3,200,35,2,3,2,1,35,5,4,30,1,4,185,111.6666667,0,-99,4,170,0,0,430,72,2,7,2,2,28.442928,2,149,180,1.2080537,0,4,4,0,0,0,0,0,0,0,0,0,1,,,,,72.25,0
28,6,2,4,1,0,0,4,1,4,1,1,1,3,200,35,2,3,5,4,35,5,4,30,1,4,185,111.6666667,0,-99,4,170,0,0,430,72,2,7,2,2,28.442928,2,149,180,1.2080537,0,4,4,0,0,0,0,0,0,0,0,0,1,,,,,72.25,0
29,1,1,5,2,0,0,5,1,1,4,2,2,1,250,35,3,1,4,1,35,1,2,0,0,0,0,0,0,-99,3,0,0,0,305,51,2,8,4,3,48.532295,2,150,200,1.3333334,0,5,1,0,0,0,0,0,0,0,0,0,1,,70,25,,97.5,1
29,1,2,5,2,0,0,5,1,1,4,2,2,1,250,35,3,1,1,2,35,1,2,0,0,0,0,0,0,-99,3,0,0,0,305,51,2,8,4,3,48.532295,2,150,200,1.3333334,0,5,1,0,0,0,0,0,0,0,0,0,1,,70,25,,97.5,1
29,2,1,5,2,0,0,5,1,1,4,2,2,5,200,70,3,1,4,3,30,2,1,0,0,0,0,0,0,-99,2,0,0,0,255,43,2,8,4,3,48.532295,2,150,200,1.3333334,70,5,1,0,0,0,0,0,0,0,0,0,1,,,,,97.5,0
29,2,2,5,2,0,0,5,1,1,4,2,2,5,200,0,3,1,1,3,30,2,1,0,0,0,0,0,0,-99,2,0,0,0,255,43,2,8,4,3,48.532295,2,150,200,1.3333334,70,5,1,0,0,0,0,0,0,0,0,0,1,,,,,97.5,0
29,3,1,5,2,0,0,5,1,1,4,2,1,1,200,70,2,3,5,4,35,5,4,35,1,2,0,0,0,-99,5,0,0,0,290,49,2,8,4,3,48.532295,2,150,200,1.3333334,70,5,1,0,0,1,0,0,0,0,1,0,3,,,,,97.5,0
29,3,2,5,2,0,0,5,1,1,4,2,1,1,200,0,2,3,6,1,35,5,4,35,1,2,0,0,0,-99,5,0,0,0,290,49,2,8,4,3,48.532295,2,150,200,1.3333334,70,5,1,0,0,0,1,0,0,0,1,0,3,,,,,97.5,0
29,4,1,5,2,0,0,5,1,1,4,2,2,6,200,70,3,1,5,1,35,1,2,30,2,1,0,0,0,-99,5,0,0,0,285,48,2,8,4,3,48.532295,2,150,200,1.3333334,70,5,1,1,0,0,0,0,0,1,0,0,4,,,,,97.5,1
29,4,2,5,2,0,0,5,1,1,4,2,2,6,200,0,3,1,1,2,35,1,2,30,2,1,0,0,0,-99,5,0,0,0,285,48,2,8,4,3,48.532295,2,150,200,1.3333334,70,5,1,0,1,0,0,0,0,1,0,0,4,,,,,97.5,1
29,5,1,5,2,0,0,5,1,1,4,2,1,8,200,70,2,3,2,3,30,2,1,30,2,1,0,0,0,-99,4,0,0,0,285,48,2,8,4,3,48.532295,2,150,200,1.3333334,70,5,1,0,0,0,0,1,0,0,0,1,2,70,,,,97.5,0
29,5,2,5,2,0,0,5,1,1,4,2,1,8,200,0,2,3,6,3,30,2,1,30,2,1,0,0,0,-99,4,0,0,0,285,48,2,8,4,3,48.532295,2,150,200,1.3333334,70,5,1,0,0,0,0,0,1,0,0,1,2,70,,,,97.5,0
29,6,1,5,2,0,0,5,1,1,4,2,2,3,200,0,3,1,5,4,35,5,4,30,2,1,151.6666667,168.3333333,0,-99,5,100,200,100,385,65,2,8,4,3,48.532295,2,150,200,1.3333334,70,5,1,0,0,1,0,0,0,0,1,0,3,,,,,97.5,0
29,6,2,5,2,0,0,5,1,1,4,2,2,3,200,70,3,1,1,4,35,5,4,30,2,1,151.6666667,168.3333333,0,-99,5,100,200,100,385,65,2,8,4,3,48.532295,2,150,200,1.3333334,70,5,1,0,0,0,1,0,0,0,1,0,3,,,,,97.5,0
30,1,1,6,2,0,0,6,1,2,4,1,1,5,191,30,2,3,5,2,30,2,2,0,0,0,0,0,0,-99,3,0,0,0,246,41,2,8,4,3,21.59531,3,10,1,.1,10,5,2,1,0,0,0,0,0,1,0,0,4,,0,25,,97.5,1
30,1,2,6,2,0,0,6,1,2,4,1,1,5,191,40,2,3,6,1,30,2,2,0,0,0,0,0,0,-99,3,0,0,0,246,41,2,8,4,3,21.59531,3,10,1,.1,10,5,2,0,1,0,0,0,0,1,0,0,4,,0,25,,97.5,1
30,2,1,6,2,0,0,6,1,2,4,1,1,8,200,35,2,3,2,4,50,2,4,0,0,0,0,0,0,-99,2,0,0,0,255,43,2,8,4,3,21.59531,3,10,1,.1,0,5,2,0,0,0,0,1,0,0,0,1,2,0,,,,97.5,1
30,2,2,6,2,0,0,6,1,2,4,1,1,8,200,35,2,3,6,4,50,2,4,0,0,0,0,0,0,-99,2,0,0,0,255,43,2,8,4,3,21.59531,3,10,1,.1,0,5,2,0,0,0,0,0,1,0,0,1,2,0,,,,97.5,1
30,3,1,6,2,0,0,6,1,2,4,1,2,3,200,35,3,1,5,3,30,2,2,30,2,2,0,0,0,-99,5,0,0,0,285,48,2,8,4,3,21.59531,3,10,1,.1,0,5,2,0,0,1,0,0,0,0,1,0,3,,,,,97.5,1
30,3,2,6,2,0,0,6,1,2,4,1,2,3,200,35,3,1,1,3,30,2,2,30,2,2,0,0,0,-99,5,0,0,0,285,48,2,8,4,3,21.59531,3,10,1,.1,0,5,2,0,0,0,1,0,0,0,1,0,3,,,,,97.5,1
30,4,1,6,2,0,0,6,1,2,4,1,1,8,200,35,2,3,4,1,30,2,2,30,2,2,0,0,0,-99,5,0,0,0,285,48,2,8,4,3,21.59531,3,10,1,.1,0,5,2,0,0,0,0,0,0,0,0,0,1,,,,,97.5,1
30,4,2,6,2,0,0,6,1,2,4,1,1,8,200,35,2,3,4,2,30,2,2,30,2,2,0,0,0,-99,5,0,0,0,285,48,2,8,4,3,21.59531,3,10,1,.1,0,5,2,0,0,0,0,0,0,0,0,0,1,,,,,97.5,1
30,5,1,6,2,0,0,6,1,2,4,1,2,5,200,35,3,1,4,4,69,1,4,50,2,4,0,0,0,-99,4,0,0,0,305,51,2,8,4,3,21.59531,3,10,1,.1,0,5,2,0,0,0,0,0,0,0,0,0,1,,,,,97.5,1
30,5,2,6,2,0,0,6,1,2,4,1,2,5,200,35,3,1,1,4,69,1,4,50,2,4,0,0,0,-99,4,0,0,0,305,51,2,8,4,3,21.59531,3,10,1,.1,0,5,2,0,0,0,0,0,0,0,0,0,1,,,,,97.5,1
30,6,1,6,2,0,0,6,1,2,4,1,1,1,200,35,2,3,5,3,35,6,2,30,2,2,185,88.33333333,0,-99,5,200,0,0,485,81,2,8,4,3,21.59531,3,10,1,.1,0,5,2,0,0,1,0,0,0,0,1,0,3,,,,,97.5,1
30,6,2,6,2,0,0,6,1,2,4,1,1,1,200,35,2,3,6,2,35,6,2,30,2,2,185,88.33333333,0,-99,5,200,0,0,485,81,2,8,4,3,21.59531,3,10,1,.1,0,5,2,0,0,0,1,0,0,0,1,0,3,,,,,97.5,1
31,1,1,7,2,0,0,7,1,3,3,2,2,6,210,25,3,1,5,3,35,1,4,0,0,0,0,0,0,-99,3,0,0,0,255,43,2,8,3,3,35.31646,2,80,90,1.125,20,5,3,1,0,0,0,0,0,1,0,0,4,,0,25,,97.5,1
31,1,2,7,2,0,0,7,1,3,3,2,2,6,210,45,3,1,1,4,35,1,4,0,0,0,0,0,0,-99,3,0,0,0,255,43,2,8,3,3,35.31646,2,80,90,1.125,20,5,3,0,1,0,0,0,0,1,0,0,4,,0,25,,97.5,1
31,2,1,7,2,0,0,7,1,3,3,2,1,2,200,35,2,3,3,1,35,3,1,0,0,0,0,0,0,-99,2,0,0,0,245,41,2,8,3,3,35.31646,2,80,90,1.125,0,5,3,0,0,0,0,0,0,0,0,0,1,,,,,97.5,0
31,2,2,7,2,0,0,7,1,3,3,2,1,2,200,35,2,3,6,3,35,3,1,0,0,0,0,0,0,-99,2,0,0,0,245,41,2,8,3,3,35.31646,2,80,90,1.125,0,5,3,0,0,0,0,0,0,0,0,0,1,,,,,97.5,0
31,3,1,7,2,0,0,7,1,3,3,2,1,4,200,35,2,3,3,2,35,3,2,35,3,2,0,0,0,-99,5,0,0,0,280,47,2,8,3,3,35.31646,2,80,90,1.125,0,5,3,0,0,0,1,0,0,0,1,0,3,,,,,97.5,0
31,3,2,7,2,0,0,7,1,3,3,2,1,4,200,35,2,3,5,2,35,3,2,35,3,2,0,0,0,-99,5,0,0,0,280,47,2,8,3,3,35.31646,2,80,90,1.125,0,5,3,0,0,1,0,0,0,0,1,0,3,,,,,97.5,0
31,4,1,7,2,0,0,7,1,3,3,2,2,1,200,35,3,1,4,3,35,1,4,35,1,4,0,0,0,-99,5,0,0,0,280,47,2,8,3,3,35.31646,2,80,90,1.125,0,5,3,0,0,0,0,0,0,0,0,0,1,,,,,97.5,1
31,4,2,7,2,0,0,7,1,3,3,2,2,1,200,35,3,1,1,4,35,1,4,35,1,4,0,0,0,-99,5,0,0,0,280,47,2,8,3,3,35.31646,2,80,90,1.125,0,5,3,0,0,0,0,0,0,0,0,0,1,,,,,97.5,1
31,5,1,7,2,0,0,7,1,3,3,2,2,8,200,35,3,1,6,3,70,2,1,35,3,1,0,0,0,-99,4,0,0,0,280,47,2,8,3,3,35.31646,2,80,90,1.125,0,5,3,0,0,0,0,0,1,0,0,1,2,0,,,,97.5,1
31,5,2,7,2,0,0,7,1,3,3,2,2,8,200,35,3,1,2,1,70,2,1,35,3,1,0,0,0,-99,4,0,0,0,280,47,2,8,3,3,35.31646,2,80,90,1.125,0,5,3,0,0,0,0,1,0,0,0,1,2,0,,,,97.5,1
31,6,1,7,2,0,0,7,1,3,3,2,1,2,200,35,2,3,4,3,35,5,2,35,3,2,176.5,132.3333333,0,-99,5,113,188,113,393,66,2,8,3,3,35.31646,2,80,90,1.125,0,5,3,0,0,0,1,0,0,0,1,0,3,,,,,97.5,1
31,6,2,7,2,0,0,7,1,3,3,2,1,2,200,35,2,3,5,2,35,5,2,35,3,2,176.5,132.3333333,0,-99,5,113,188,113,393,66,2,8,3,3,35.31646,2,80,90,1.125,0,5,3,0,0,1,0,0,0,0,1,0,3,,,,,97.5,1
32,1,1,8,2,0,0,8,1,4,3,1,1,8,150,35,2,3,4,3,30,2,4,0,0,0,0,0,0,-99,3,0,0,0,205,35,2,8,4,3,36.78759,2,150,100,.66666669,0,5,4,0,0,0,0,0,0,0,0,0,1,,30,25,,97.5,0
32,1,2,8,2,0,0,8,1,4,3,1,1,8,150,35,2,3,4,4,30,2,4,0,0,0,0,0,0,-99,3,0,0,0,205,35,2,8,4,3,36.78759,2,150,100,.66666669,0,5,4,0,0,0,0,0,0,0,0,0,1,,30,25,,97.5,0
32,2,1,8,2,0,0,8,1,4,3,1,2,8,200,20,3,1,6,4,30,2,4,30,2,4,0,0,0,-99,2,0,0,0,285,48,2,8,4,3,36.78759,2,150,100,.66666669,30,5,4,0,0,0,0,0,1,0,0,1,2,30,,,,97.5,0
32,2,2,8,2,0,0,8,1,4,3,1,2,8,200,50,3,1,2,2,30,2,4,30,2,4,0,0,0,-99,2,0,0,0,285,48,2,8,4,3,36.78759,2,150,100,.66666669,30,5,4,0,0,0,0,1,0,0,0,1,2,30,,,,97.5,0
32,3,1,8,2,0,0,8,1,4,3,1,1,2,200,35,2,3,4,4,36,4,4,36,4,4,0,0,0,-99,5,0,0,0,291,49,2,8,4,3,36.78759,2,150,100,.66666669,0,5,4,0,0,0,1,0,0,0,1,0,3,,,,,97.5,0
32,3,2,8,2,0,0,8,1,4,3,1,1,2,200,35,2,3,5,1,36,4,4,36,4,4,0,0,0,-99,5,0,0,0,291,49,2,8,4,3,36.78759,2,150,100,.66666669,0,5,4,0,0,1,0,0,0,0,1,0,3,,,,,97.5,0
32,4,1,8,2,0,0,8,1,4,3,1,1,5,200,1,2,3,5,4,30,2,4,30,2,4,0,0,0,-99,5,0,0,0,285,48,2,8,4,3,36.78759,2,150,100,.66666669,68,5,4,1,0,0,0,0,0,1,0,0,4,,,,,97.5,1
32,4,2,8,2,0,0,8,1,4,3,1,1,5,200,69,2,3,6,3,30,2,4,30,2,4,0,0,0,-99,5,0,0,0,285,48,2,8,4,3,36.78759,2,150,100,.66666669,68,5,4,0,1,0,0,0,0,1,0,0,4,,,,,97.5,1
32,5,1,8,2,0,0,8,1,4,3,1,1,2,200,35,2,3,3,2,30,2,4,30,2,4,0,0,0,-99,4,0,0,0,285,48,2,8,4,3,36.78759,2,150,100,.66666669,0,5,4,0,0,0,0,0,0,0,0,0,1,,,,,97.5,0
32,5,2,8,2,0,0,8,1,4,3,1,1,2,200,35,2,3,6,4,30,2,4,30,2,4,0,0,0,-99,4,0,0,0,285,48,2,8,4,3,36.78759,2,150,100,.66666669,0,5,4,0,0,0,0,0,0,0,0,0,1,,,,,97.5,0
32,6,1,8,2,0,0,8,1,4,3,1,1,4,200,35,2,3,3,1,35,5,1,30,2,4,173.6666667,136.1666667,0,-99,5,188,0,0,473,79,2,8,4,3,36.78759,2,150,100,.66666669,0,5,4,0,0,0,1,0,0,0,1,0,3,,,,,97.5,0
32,6,2,8,2,0,0,8,1,4,3,1,1,4,200,35,2,3,5,1,35,5,1,30,2,4,173.6666667,136.1666667,0,-99,5,188,0,0,473,79,2,8,4,3,36.78759,2,150,100,.66666669,0,5,4,0,0,1,0,0,0,0,1,0,3,,,,,97.5,0
33,1,1,9,3,0,0,9,1,1,6,2,1,7,191,35,2,3,3,2,30,3,1,0,0,0,0,0,0,-99,6,0,0,0,211,36,2,9,2,0,29.446163,2,10,1,.1,0,6,1,0,0,0,0,1,0,0,0,1,2,0,0,7.5,,90,1
33,1,2,9,3,0,0,9,1,1,6,2,1,7,191,35,2,3,5,1,30,3,1,0,0,0,0,0,0,-99,6,0,0,0,211,36,2,9,2,0,29.446163,2,10,1,.1,0,6,1,0,0,0,0,0,1,0,0,1,2,0,0,7.5,,90,1
33,2,1,9,3,0,0,9,1,1,6,2,2,2,200,35,3,1,6,3,30,3,1,0,0,0,0,0,0,-99,3,0,0,0,220,37,2,9,2,0,29.446163,2,10,1,.1,0,6,1,0,0,1,0,0,0,0,1,0,3,,,,,90,1
33,2,2,9,3,0,0,9,1,1,6,2,2,2,200,35,3,1,2,3,30,3,1,0,0,0,0,0,0,-99,3,0,0,0,220,37,2,9,2,0,29.446163,2,10,1,.1,0,6,1,0,0,0,1,0,0,0,1,0,3,,,,,90,1
33,3,1,9,3,0,0,9,1,1,6,2,3,7,200,35,1,2,1,1,20,1,4,20,1,4,0,0,0,-99,6,0,0,0,240,40,2,9,2,0,29.446163,2,10,1,.1,0,6,1,0,0,0,0,0,0,0,0,0,1,,,,,90,1
33,3,2,9,3,0,0,9,1,1,6,2,3,7,200,35,1,2,1,4,20,1,4,20,1,4,0,0,0,-99,6,0,0,0,240,40,2,9,2,0,29.446163,2,10,1,.1,0,6,1,0,0,0,0,0,0,0,0,0,1,,,,,90,1
33,4,1,9,3,0,0,9,1,1,6,2,2,4,200,30,3,1,6,2,35,1,1,0,0,0,0,0,0,-99,6,0,0,0,220,37,2,9,2,0,29.446163,2,10,1,.1,10,6,1,0,0,1,0,0,0,0,1,0,3,,,,,90,1
33,4,2,9,3,0,0,9,1,1,6,2,2,4,200,40,3,1,1,1,35,1,1,0,0,0,0,0,0,-99,6,0,0,0,220,37,2,9,2,0,29.446163,2,10,1,.1,10,6,1,0,0,0,1,0,0,0,1,0,3,,,,,90,1
33,5,1,9,3,0,0,9,1,1,6,2,1,6,200,35,2,3,5,3,30,3,1,35,1,1,0,0,0,-99,3,0,0,0,255,43,2,9,2,0,29.446163,2,10,1,.1,0,6,1,0,1,0,0,0,0,1,0,0,4,,,,,90,1
33,5,2,9,3,0,0,9,1,1,6,2,1,6,200,35,2,3,6,1,30,3,1,35,1,1,0,0,0,-99,3,0,0,0,255,43,2,9,2,0,29.446163,2,10,1,.1,0,6,1,1,0,0,0,0,0,1,0,0,4,,,,,90,1
33,6,1,9,3,0,0,9,1,1,6,2,2,4,200,35,3,1,5,1,35,5,1,20,1,4,183.8333333,114.6666667,0,-99,1,170,170,170,410,69,2,9,2,0,29.446163,2,10,1,.1,0,6,1,0,0,0,0,0,0,0,0,0,1,,,,,90,1
33,6,2,9,3,0,0,9,1,1,6,2,2,4,200,35,3,1,2,4,35,5,1,20,1,4,183.8333333,114.6666667,0,-99,1,170,170,170,410,69,2,9,2,0,29.446163,2,10,1,.1,0,6,1,0,0,0,0,0,0,0,0,0,1,,,,,90,1
34,1,1,10,3,0,0,10,1,2,6,1,2,7,275,20,3,1,5,1,35,3,1,0,0,0,0,0,0,-99,6,0,0,0,285,48,2,9,1,0,35.767391,2,150,225,1.5,30,6,2,0,0,0,0,0,1,0,0,1,2,30,30,7.5,,90,1
34,1,2,10,3,0,0,10,1,2,6,1,2,7,275,50,3,1,3,1,35,3,1,0,0,0,0,0,0,-99,6,0,0,0,285,48,2,9,1,0,35.767391,2,150,225,1.5,30,6,2,0,0,0,0,1,0,0,0,1,2,30,30,7.5,,90,1
34,2,1,10,3,0,0,10,1,2,6,1,1,6,200,25,2,3,5,4,35,5,4,35,3,1,0,0,0,-99,3,0,0,0,245,41,2,9,1,0,35.767391,2,150,225,1.5,20,6,2,0,1,0,0,0,0,1,0,0,4,,,,,90,1
34,2,2,10,3,0,0,10,1,2,6,1,1,6,200,45,2,3,6,2,35,5,4,35,3,1,0,0,0,-99,3,0,0,0,245,41,2,9,1,0,35.767391,2,150,225,1.5,20,6,2,1,0,0,0,0,0,1,0,0,4,,,,,90,1
34,3,1,10,3,0,0,10,1,2,6,1,2,4,200,35,3,1,5,2,30,3,2,0,0,0,0,0,0,-99,6,0,0,0,210,35,2,9,1,0,35.767391,2,150,225,1.5,0,6,2,0,0,0,0,0,0,0,0,0,1,,,,,90,1
34,3,2,10,3,0,0,10,1,2,6,1,2,4,200,35,3,1,2,3,30,3,2,0,0,0,0,0,0,-99,6,0,0,0,210,35,2,9,1,0,35.767391,2,150,225,1.5,0,6,2,0,0,0,0,0,0,0,0,0,1,,,,,90,1
34,4,1,10,3,0,0,10,1,2,6,1,1,3,200,30,2,3,0,0,30,3,2,35,3,1,0,0,0,-99,6,0,0,0,245,41,2,9,1,0,35.767391,2,150,225,1.5,10,6,2,0,0,0,1,0,0,0,1,0,3,,,,,90,1
34,4,2,10,3,0,0,10,1,2,6,1,1,3,200,40,2,3,6,1,30,3,2,35,3,1,0,0,0,-99,6,0,0,0,245,41,2,9,1,0,35.767391,2,150,225,1.5,10,6,2,0,0,1,0,0,0,0,1,0,3,,,,,90,1
34,5,1,10,3,0,0,10,1,2,6,1,2,2,200,30,3,1,6,4,35,2,4,35,2,4,0,0,0,-99,3,0,0,0,245,41,2,9,1,0,35.767391,2,150,225,1.5,10,6,2,0,0,1,0,0,0,0,1,0,3,,,,,90,0
34,5,2,10,3,0,0,10,1,2,6,1,2,2,200,40,3,1,2,4,35,2,4,35,2,4,0,0,0,-99,3,0,0,0,245,41,2,9,1,0,35.767391,2,150,225,1.5,10,6,2,0,0,0,1,0,0,0,1,0,3,,,,,90,0
34,6,1,10,3,0,0,10,1,2,6,1,3,7,200,30,1,2,1,2,30,3,2,35,3,1,174,132.3333333,0,-99,1,170,0,0,415,70,2,9,1,0,35.767391,2,150,225,1.5,10,6,2,0,0,0,0,0,0,0,0,0,1,,,,,90,0
34,6,2,10,3,0,0,10,1,2,6,1,3,7,200,40,1,2,1,3,30,3,2,35,3,1,174,132.3333333,0,-99,1,170,0,0,415,70,2,9,1,0,35.767391,2,150,225,1.5,10,6,2,0,0,0,0,0,0,0,0,0,1,,,,,90,0
35,1,1,11,3,0,0,11,1,3,5,2,2,4,175,35,3,1,6,4,40,1,3,0,0,0,0,0,0,-99,6,0,0,0,195,33,2,9,2,0,32.391392,2,50,25,.5,0,6,3,0,0,1,0,0,0,0,1,0,3,,0,7.5,,90,0
35,1,2,11,3,0,0,11,1,3,5,2,2,4,175,35,3,1,1,3,40,1,3,0,0,0,0,0,0,-99,6,0,0,0,195,33,2,9,2,0,32.391392,2,50,25,.5,0,6,3,0,0,0,1,0,0,0,1,0,3,,0,7.5,,90,0
35,2,1,11,3,0,0,11,1,3,5,2,1,1,200,35,2,3,4,1,35,4,1,0,0,0,0,0,0,-99,3,0,0,0,220,37,2,9,2,0,32.391392,2,50,25,.5,0,6,3,0,0,0,1,0,0,0,1,0,3,,,,,90,0
35,2,2,11,3,0,0,11,1,3,5,2,1,1,200,35,2,3,6,1,35,4,1,0,0,0,0,0,0,-99,3,0,0,0,220,37,2,9,2,0,32.391392,2,50,25,.5,0,6,3,0,0,1,0,0,0,0,1,0,3,,,,,90,0
35,3,1,11,3,0,0,11,1,3,5,2,2,6,200,35,3,1,4,2,30,3,3,30,3,3,0,0,0,-99,6,0,0,0,250,42,2,9,2,0,32.391392,2,50,25,.5,0,6,3,0,0,0,0,0,0,0,0,0,1,,,,,90,0
35,3,2,11,3,0,0,11,1,3,5,2,2,6,200,35,3,1,1,2,30,3,3,30,3,3,0,0,0,-99,6,0,0,0,250,42,2,9,2,0,32.391392,2,50,25,.5,0,6,3,0,0,0,0,0,0,0,0,0,1,,,,,90,0
35,4,1,11,3,0,0,11,1,3,5,2,1,7,200,35,2,3,3,4,30,3,3,40,1,3,0,0,0,-99,6,0,0,0,260,44,2,9,2,0,32.391392,2,50,25,.5,0,6,3,0,0,0,0,1,0,0,0,1,2,0,,,,90,0
35,4,2,11,3,0,0,11,1,3,5,2,1,7,200,35,2,3,5,3,30,3,3,40,1,3,0,0,0,-99,6,0,0,0,260,44,2,9,2,0,32.391392,2,50,25,.5,0,6,3,0,0,0,0,0,1,0,0,1,2,0,,,,90,0
35,5,1,11,3,0,0,11,1,3,5,2,2,3,200,35,3,1,4,1,70,1,3,30,3,3,0,0,0,-99,3,0,0,0,250,42,2,9,2,0,32.391392,2,50,25,.5,0,6,3,0,0,0,0,0,0,0,0,0,1,,,,,90,1
35,5,2,11,3,0,0,11,1,3,5,2,2,3,200,35,3,1,1,3,70,1,3,30,3,3,0,0,0,-99,3,0,0,0,250,42,2,9,2,0,32.391392,2,50,25,.5,0,6,3,0,0,0,0,0,0,0,0,0,1,,,,,90,1
35,6,1,11,3,0,0,11,1,3,5,2,1,5,200,35,2,3,4,2,35,6,3,70,1,3,180,123.3333333,0,-99,1,170,170,170,460,77,2,9,2,0,32.391392,2,50,25,.5,0,6,3,0,1,0,0,0,0,1,0,0,4,,,,,90,1
35,6,2,11,3,0,0,11,1,3,5,2,1,5,200,35,2,3,6,3,35,6,3,70,1,3,180,123.3333333,0,-99,1,170,170,170,460,77,2,9,2,0,32.391392,2,50,25,.5,0,6,3,1,0,0,0,0,0,1,0,0,4,,,,,90,1
36,1,1,12,3,0,0,12,1,4,5,1,1,3,275,35,2,3,5,4,30,3,4,0,0,0,0,0,0,-99,6,0,0,0,295,50,2,9,2,0,40.629204,2,150,225,1.5,0,6,4,0,0,0,1,0,0,0,1,0,3,,0,7.5,,90,0
36,1,2,12,3,0,0,12,1,4,5,1,1,3,275,35,2,3,6,3,30,3,4,0,0,0,0,0,0,-99,6,0,0,0,295,50,2,9,2,0,40.629204,2,150,225,1.5,0,6,4,0,0,1,0,0,0,0,1,0,3,,0,7.5,,90,0
36,2,1,12,3,0,0,12,1,4,5,1,2,3,200,35,3,1,4,2,30,3,4,0,0,0,0,0,0,-99,3,0,0,0,220,37,2,9,2,0,40.629204,2,150,225,1.5,0,6,4,0,0,0,0,0,0,0,0,0,1,,,,,90,0
36,2,2,12,3,0,0,12,1,4,5,1,2,3,200,35,3,1,1,4,30,3,4,0,0,0,0,0,0,-99,3,0,0,0,220,37,2,9,2,0,40.629204,2,150,225,1.5,0,6,4,0,0,0,0,0,0,0,0,0,1,,,,,90,0
36,3,1,12,3,0,0,12,1,4,5,1,1,5,200,35,2,3,4,1,50,4,1,0,0,0,0,0,0,-99,6,0,0,0,220,37,2,9,2,0,40.629204,2,150,225,1.5,0,6,4,0,1,0,0,0,0,1,0,0,4,,,,,90,1
36,3,2,12,3,0,0,12,1,4,5,1,1,5,200,35,2,3,6,4,50,4,1,0,0,0,0,0,0,-99,6,0,0,0,220,37,2,9,2,0,40.629204,2,150,225,1.5,0,6,4,1,0,0,0,0,0,1,0,0,4,,,,,90,1
36,4,1,12,3,0,0,12,1,4,5,1,2,7,200,35,3,1,5,3,35,3,3,50,4,1,0,0,0,-99,6,0,0,0,270,45,2,9,2,0,40.629204,2,150,225,1.5,0,6,4,0,0,0,0,0,1,0,0,1,2,0,,,,90,0
36,4,2,12,3,0,0,12,1,4,5,1,2,7,200,35,3,1,3,3,35,3,3,50,4,1,0,0,0,-99,6,0,0,0,270,45,2,9,2,0,40.629204,2,150,225,1.5,0,6,4,0,0,0,0,1,0,0,0,1,2,0,,,,90,0
36,5,1,12,3,0,0,12,1,4,5,1,1,1,200,35,2,3,4,2,30,3,4,30,3,4,0,0,0,-99,3,0,0,0,250,42,2,9,2,0,40.629204,2,150,225,1.5,0,6,4,0,0,0,1,0,0,0,1,0,3,,,,,90,0
36,5,2,12,3,0,0,12,1,4,5,1,1,1,200,35,2,3,6,2,30,3,4,30,3,4,0,0,0,-99,3,0,0,0,250,42,2,9,2,0,40.629204,2,150,225,1.5,0,6,4,0,0,1,0,0,0,0,1,0,3,,,,,90,0
36,6,1,12,3,0,0,12,1,4,5,1,2,6,200,35,3,1,4,1,35,4,1,30,3,4,165.8333333,145.8333333,0,-99,1,170,0,0,420,70,2,9,2,0,40.629204,2,150,225,1.5,0,6,4,0,0,0,0,0,0,0,0,0,1,,,,,90,1
36,6,2,12,3,0,0,12,1,4,5,1,2,6,200,35,3,1,1,1,35,4,1,30,3,4,165.8333333,145.8333333,0,-99,1,170,0,0,420,70,2,9,2,0,40.629204,2,150,225,1.5,0,6,4,0,0,0,0,0,0,0,0,0,1,,,,,90,1
37,1,1,13,4,0,0,1,2,1,8,2,3,1,200,35,1,2,1,2,35,1,2,0,0,0,0,0,0,-99,2,0,0,0,240,40,2,10,3,2,33.00547,2,100,100,1,0,1,1,0,0,1,0,0,0,0,1,0,3,,50,35,.77768457,,1
37,1,2,13,4,0,0,1,2,1,8,2,3,1,200,35,1,2,2,1,35,1,2,0,0,0,0,0,0,-99,2,0,0,0,240,40,2,10,3,2,33.00547,2,100,100,1,0,1,1,0,0,0,1,0,0,0,1,0,3,,50,35,.77768457,,1
37,2,1,13,4,0,0,1,2,1,8,2,2,1,0,35,3,1,6,1,30,4,1,0,0,0,0,0,0,-99,1,0,0,0,40,7,2,10,3,2,33.00547,2,100,100,1,0,1,1,0,0,0,0,0,0,0,0,0,1,,,,.77768457,,1
37,2,2,13,4,0,0,1,2,1,8,2,2,1,0,35,3,1,3,3,30,4,1,0,0,0,0,0,0,-99,1,0,0,0,40,7,2,10,3,2,33.00547,2,100,100,1,0,1,1,0,0,0,0,0,0,0,0,0,1,,,,.77768457,,1
37,3,1,13,4,0,0,1,2,1,8,2,2,5,0,20,3,1,6,4,30,4,1,0,0,0,0,0,0,-99,3,0,0,0,40,7,2,10,3,2,33.00547,2,100,100,1,30,1,1,0,0,0,0,0,0,0,0,0,1,,,,.77768457,,0
37,3,2,13,4,0,0,1,2,1,8,2,2,5,0,50,3,1,3,4,30,4,1,0,0,0,0,0,0,-99,3,0,0,0,40,7,2,10,3,2,33.00547,2,100,100,1,30,1,1,0,0,0,0,0,0,0,0,0,1,,,,.77768457,,0
37,4,1,13,4,0,0,1,2,1,8,2,2,8,0,60,3,1,4,2,35,2,2,30,4,1,0,0,0,-99,3,0,0,0,70,12,2,10,3,2,33.00547,2,100,100,1,50,1,1,0,0,0,0,1,0,0,0,1,2,50,,,.77768457,,1
37,4,2,13,4,0,0,1,2,1,8,2,2,8,0,10,3,1,2,2,35,2,2,30,4,1,0,0,0,-99,3,0,0,0,70,12,2,10,3,2,33.00547,2,100,100,1,50,1,1,0,0,0,0,0,1,0,0,1,2,50,,,.77768457,,1
37,5,1,13,4,0,0,1,2,1,8,2,3,3,0,35,1,2,1,3,0,1,3,0,1,3,0,0,0,-99,5,0,0,0,40,7,2,10,3,2,33.00547,2,100,100,1,0,1,1,0,0,1,0,0,0,0,1,0,3,,,,.77768457,,0
37,5,2,13,4,0,0,1,2,1,8,2,3,3,0,35,1,2,3,3,0,1,3,0,1,3,0,0,0,-99,5,0,0,0,40,7,2,10,3,2,33.00547,2,100,100,1,0,1,1,0,0,0,1,0,0,0,1,0,3,,,,.77768457,,0
37,6,1,13,4,0,0,1,2,1,8,2,3,6,0,35,1,2,1,1,30,4,1,30,4,1,171,119.8333333,0,-99,4,136,126,136,206,35,2,10,3,2,33.00547,2,100,100,1,0,1,1,1,0,0,0,0,0,1,0,0,4,,,,.77768457,,1
37,6,2,13,4,0,0,1,2,1,8,2,3,6,0,35,1,2,3,4,30,4,1,30,4,1,171,119.8333333,0,-99,4,136,126,136,206,35,2,10,3,2,33.00547,2,100,100,1,0,1,1,0,1,0,0,0,0,1,0,0,4,,,,.77768457,,1
38,1,1,14,4,0,0,2,2,2,8,1,2,2,115,35,3,1,6,2,35,1,1,0,0,0,0,0,0,-99,2,0,0,0,155,26,2,10,3,2,40.825764,2,40,5,.125,0,1,2,0,0,0,1,0,0,0,1,0,3,,30,35,.77768457,,1
38,1,2,14,4,0,0,2,2,2,8,1,2,2,115,35,3,1,1,1,35,1,1,0,0,0,0,0,0,-99,2,0,0,0,155,26,2,10,3,2,40.825764,2,40,5,.125,0,1,2,0,0,1,0,0,0,0,1,0,3,,30,35,.77768457,,1
38,2,1,14,4,0,0,2,2,2,8,1,3,3,0,40,1,2,1,4,35,3,4,0,0,0,0,0,0,-99,1,0,0,0,40,7,2,10,3,2,40.825764,2,40,5,.125,10,1,2,0,0,1,0,0,0,0,1,0,3,,,,.77768457,,1
38,2,2,14,4,0,0,2,2,2,8,1,3,3,0,30,1,2,3,4,35,3,4,0,0,0,0,0,0,-99,1,0,0,0,40,7,2,10,3,2,40.825764,2,40,5,.125,10,1,2,0,0,0,1,0,0,0,1,0,3,,,,.77768457,,1
38,3,1,14,4,0,0,2,2,2,8,1,3,6,0,35,1,2,1,2,35,3,3,35,3,3,0,0,0,-99,3,0,0,0,75,13,2,10,3,2,40.825764,2,40,5,.125,0,1,2,1,0,0,0,0,0,1,0,0,4,,,,.77768457,,1
38,3,2,14,4,0,0,2,2,2,8,1,3,6,0,35,1,2,3,3,35,3,3,35,3,3,0,0,0,-99,3,0,0,0,75,13,2,10,3,2,40.825764,2,40,5,.125,0,1,2,0,1,0,0,0,0,1,0,0,4,,,,.77768457,,1
38,4,1,14,4,0,0,2,2,2,8,1,3,8,0,20,1,2,2,2,35,2,2,35,2,2,0,0,0,-99,3,0,0,0,75,13,2,10,3,2,40.825764,2,40,5,.125,30,1,2,0,0,0,0,0,1,0,0,1,2,30,,,.77768457,,1
38,4,2,14,4,0,0,2,2,2,8,1,3,8,0,50,1,2,4,1,35,2,2,35,2,2,0,0,0,-99,3,0,0,0,75,13,2,10,3,2,40.825764,2,40,5,.125,30,1,2,0,0,0,0,1,0,0,0,1,2,30,,,.77768457,,1
38,5,1,14,4,0,0,2,2,2,8,1,2,1,0,40,3,1,6,2,35,3,4,35,3,4,0,0,0,-99,5,0,0,0,75,13,2,10,3,2,40.825764,2,40,5,.125,10,1,2,0,0,0,0,0,0,0,0,0,1,,,,.77768457,,1
38,5,2,14,4,0,0,2,2,2,8,1,2,1,0,30,3,1,3,4,35,3,4,35,3,4,0,0,0,-99,5,0,0,0,75,13,2,10,3,2,40.825764,2,40,5,.125,10,1,2,0,0,0,0,0,0,0,0,0,1,,,,.77768457,,1
38,6,1,14,4,0,0,2,2,2,8,1,2,5,0,35,3,1,6,3,35,6,3,35,3,4,164.6666667,145.6666667,0,-99,4,126,0,0,201,34,2,10,3,2,40.825764,2,40,5,.125,0,1,2,0,0,0,0,0,0,0,0,0,1,,,,.77768457,,0
38,6,2,14,4,0,0,2,2,2,8,1,2,5,0,35,3,1,3,3,35,6,3,35,3,4,164.6666667,145.6666667,0,-99,4,126,0,0,201,34,2,10,3,2,40.825764,2,40,5,.125,0,1,2,0,0,0,0,0,0,0,0,0,1,,,,.77768457,,0
39,1,1,15,4,0,0,3,2,3,7,2,2,8,0,40,3,1,4,4,35,2,4,0,0,0,0,0,0,-99,2,0,0,0,40,7,2,10,3,2,28.442928,2,0,0,,10,1,3,0,0,0,0,1,0,0,0,1,2,10,10,35,.77768457,,0
39,1,2,15,4,0,0,3,2,3,7,2,2,8,0,30,3,1,2,4,35,2,4,0,0,0,0,0,0,-99,2,0,0,0,40,7,2,10,3,2,28.442928,2,0,0,,10,1,3,0,0,0,0,0,1,0,0,1,2,10,10,35,.77768457,,0
39,2,1,15,4,0,0,3,2,3,7,2,3,5,0,0,1,2,1,3,70,2,1,0,0,0,0,0,0,-99,1,0,0,0,40,7,2,10,3,2,28.442928,2,0,0,,70,1,3,1,0,0,0,0,0,1,0,0,4,,,,.77768457,,1
39,2,2,15,4,0,0,3,2,3,7,2,3,5,0,70,1,2,2,1,70,2,1,0,0,0,0,0,0,-99,1,0,0,0,40,7,2,10,3,2,28.442928,2,0,0,,70,1,3,0,1,0,0,0,0,1,0,0,4,,,,.77768457,,1
39,3,1,15,4,0,0,3,2,3,7,2,1,8,0,35,2,3,6,2,35,6,2,70,2,1,0,0,0,-99,3,0,0,0,110,19,2,10,3,2,28.442928,2,0,0,,0,1,3,0,0,0,0,0,0,0,0,0,1,,,,.77768457,,1
39,3,2,15,4,0,0,3,2,3,7,2,1,8,0,35,2,3,6,3,35,6,2,70,2,1,0,0,0,-99,3,0,0,0,110,19,2,10,3,2,28.442928,2,0,0,,0,1,3,0,0,0,0,0,0,0,0,0,1,,,,.77768457,,1
39,4,1,15,4,0,0,3,2,3,7,2,3,1,0,35,1,2,1,4,35,1,4,0,0,0,0,0,0,-99,3,0,0,0,40,7,2,10,3,2,28.442928,2,0,0,,0,1,3,0,0,1,0,0,0,0,1,0,3,,,,.77768457,,1
39,4,2,15,4,0,0,3,2,3,7,2,3,1,0,35,1,2,2,3,35,1,4,0,0,0,0,0,0,-99,3,0,0,0,40,7,2,10,3,2,28.442928,2,0,0,,0,1,3,0,0,0,1,0,0,0,1,0,3,,,,.77768457,,1
39,5,1,15,4,0,0,3,2,3,7,2,2,4,0,40,3,1,5,1,35,1,1,35,6,2,0,0,0,-99,5,0,0,0,75,13,2,10,3,2,28.442928,2,0,0,,10,1,3,0,0,0,1,0,0,0,1,0,3,,,,.77768457,,1
39,5,2,15,4,0,0,3,2,3,7,2,2,4,0,30,3,1,1,1,35,1,1,35,6,2,0,0,0,-99,5,0,0,0,75,13,2,10,3,2,28.442928,2,0,0,,10,1,3,0,0,1,0,0,0,0,1,0,3,,,,.77768457,,1
39,6,1,15,4,0,0,3,2,3,7,2,2,2,0,35,3,1,5,2,35,5,2,35,2,4,185,111.6666667,0,-99,4,30,170,30,105,18,2,10,3,2,28.442928,2,0,0,,0,1,3,0,0,0,0,0,0,0,0,0,1,,,,.77768457,,1
39,6,2,15,4,0,0,3,2,3,7,2,2,2,0,35,3,1,2,3,35,5,2,35,2,4,185,111.6666667,0,-99,4,30,170,30,105,18,2,10,3,2,28.442928,2,0,0,,0,1,3,0,0,0,0,0,0,0,0,0,1,,,,.77768457,,1
40,1,1,16,4,0,0,4,2,4,7,1,3,8,267,10,1,2,2,4,35,2,4,0,0,0,0,0,0,-99,2,0,0,0,297,50,2,10,2,2,28.442928,2,149,180,1.2080537,50,1,4,0,0,0,0,0,1,0,0,1,2,50,50,35,.77768457,,1
40,1,2,16,4,0,0,4,2,4,7,1,3,8,267,60,1,2,4,3,35,2,4,0,0,0,0,0,0,-99,2,0,0,0,297,50,2,10,2,2,28.442928,2,149,180,1.2080537,50,1,4,0,0,0,0,1,0,0,0,1,2,50,50,35,.77768457,,1
40,2,1,16,4,0,0,4,2,4,7,1,2,4,0,35,3,1,5,2,30,4,4,0,0,0,0,0,0,-99,1,0,0,0,30,5,2,10,2,2,28.442928,2,149,180,1.2080537,0,1,4,0,0,0,1,0,0,0,1,0,3,,,,.77768457,,1
40,2,2,16,4,0,0,4,2,4,7,1,2,4,0,35,3,1,1,2,30,4,4,0,0,0,0,0,0,-99,1,0,0,0,30,5,2,10,2,2,28.442928,2,149,180,1.2080537,0,1,4,0,0,1,0,0,0,0,1,0,3,,,,.77768457,,1
40,3,1,16,4,0,0,4,2,4,7,1,2,2,0,34,3,1,5,1,30,4,4,0,0,0,0,0,0,-99,3,0,0,0,30,5,2,10,2,2,28.442928,2,149,180,1.2080537,2,1,4,0,0,0,0,0,0,0,0,0,1,,,,.77768457,,1
40,3,2,16,4,0,0,4,2,4,7,1,2,2,0,36,3,1,2,4,30,4,4,0,0,0,0,0,0,-99,3,0,0,0,30,5,2,10,2,2,28.442928,2,149,180,1.2080537,2,1,4,0,0,0,0,0,0,0,0,0,1,,,,.77768457,,1
40,4,1,16,4,0,0,4,2,4,7,1,2,2,0,1,3,1,6,4,0,1,3,35,2,4,0,0,0,-99,3,0,0,0,65,11,2,10,2,2,28.442928,2,149,180,1.2080537,68,1,4,0,0,0,1,0,0,0,1,0,3,,,,.77768457,,1
40,4,2,16,4,0,0,4,2,4,7,1,2,2,0,69,3,1,1,3,0,1,3,35,2,4,0,0,0,-99,3,0,0,0,65,11,2,10,2,2,28.442928,2,149,180,1.2080537,68,1,4,0,0,1,0,0,0,0,1,0,3,,,,.77768457,,1
40,5,1,16,4,0,0,4,2,4,7,1,3,5,0,65,1,2,1,4,1,1,4,1,1,4,0,0,0,-99,5,0,0,0,31,6,2,10,2,2,28.442928,2,149,180,1.2080537,60,1,4,1,0,0,0,0,0,1,0,0,4,,,,.77768457,,1
40,5,2,16,4,0,0,4,2,4,7,1,3,5,0,5,1,2,2,2,1,1,4,1,1,4,0,0,0,-99,5,0,0,0,31,6,2,10,2,2,28.442928,2,149,180,1.2080537,60,1,4,0,1,0,0,0,0,1,0,0,4,,,,.77768457,,1
40,6,1,16,4,0,0,4,2,4,7,1,1,8,0,35,2,3,6,1,35,6,4,30,4,4,185,111.6666667,0,-99,4,170,0,0,230,39,2,10,2,2,28.442928,2,149,180,1.2080537,0,1,4,0,0,0,0,0,0,0,0,0,1,,,,.77768457,,0
40,6,2,16,4,0,0,4,2,4,7,1,1,8,0,35,2,3,6,4,35,6,4,30,4,4,185,111.6666667,0,-99,4,170,0,0,230,39,2,10,2,2,28.442928,2,149,180,1.2080537,0,1,4,0,0,0,0,0,0,0,0,0,1,,,,.77768457,,0
41,1,1,17,5,0,0,5,2,1,10,2,3,7,250,35,1,2,3,1,35,3,1,0,0,0,0,0,0,-99,2,0,0,0,265,45,2,11,1,1,41.743954,2,150,200,1.3333334,0,2,1,0,0,0,0,0,0,0,0,0,1,,68,42,.80625004,,1
41,1,2,17,5,0,0,5,2,1,10,2,3,7,250,35,1,2,3,2,35,3,1,0,0,0,0,0,0,-99,2,0,0,0,265,45,2,11,1,1,41.743954,2,150,200,1.3333334,0,2,1,0,0,0,0,0,0,0,0,0,1,,68,42,.80625004,,1
41,2,1,17,5,0,0,5,2,1,10,2,2,7,0,69,3,1,5,3,30,5,1,0,0,0,0,0,0,-99,6,0,0,0,15,3,2,11,1,1,41.743954,2,150,200,1.3333334,68,2,1,0,0,0,0,1,0,0,0,1,2,68,,,.80625004,,1
41,2,2,17,5,0,0,5,2,1,10,2,2,7,0,1,3,1,1,1,30,5,1,0,0,0,0,0,0,-99,6,0,0,0,15,3,2,11,1,1,41.743954,2,150,200,1.3333334,68,2,1,0,0,0,0,0,1,0,0,1,2,68,,,.80625004,,1
41,3,1,17,5,0,0,5,2,1,10,2,3,2,0,35,1,2,2,4,34,4,4,34,4,4,0,0,0,-99,4,0,0,0,49,9,2,11,1,1,41.743954,2,150,200,1.3333334,0,2,1,0,0,1,0,0,0,0,1,0,3,,,,.80625004,,1
41,3,2,17,5,0,0,5,2,1,10,2,3,2,0,35,1,2,4,4,34,4,4,34,4,4,0,0,0,-99,4,0,0,0,49,9,2,11,1,1,41.743954,2,150,200,1.3333334,0,2,1,0,0,0,1,0,0,0,1,0,3,,,,.80625004,,1
41,4,1,17,5,0,0,5,2,1,10,2,3,6,0,35,1,2,1,2,35,1,2,35,1,2,0,0,0,-99,4,0,0,0,50,9,2,11,1,1,41.743954,2,150,200,1.3333334,0,2,1,0,1,0,0,0,0,1,0,0,4,,,,.80625004,,1
41,4,2,17,5,0,0,5,2,1,10,2,3,6,0,35,1,2,2,1,35,1,2,35,1,2,0,0,0,-99,4,0,0,0,50,9,2,11,1,1,41.743954,2,150,200,1.3333334,0,2,1,1,0,0,0,0,0,1,0,0,4,,,,.80625004,,1
41,5,1,17,5,0,0,5,2,1,10,2,3,4,0,35,1,2,1,1,35,1,1,30,5,1,0,0,0,-99,6,0,0,0,45,8,2,11,1,1,41.743954,2,150,200,1.3333334,0,2,1,0,0,0,0,0,0,0,0,0,1,,,,.80625004,,0
41,5,2,17,5,0,0,5,2,1,10,2,3,4,0,35,1,2,4,3,35,1,1,30,5,1,0,0,0,-99,6,0,0,0,45,8,2,11,1,1,41.743954,2,150,200,1.3333334,0,2,1,0,0,0,0,0,0,0,0,0,1,,,,.80625004,,0
41,6,1,17,5,0,0,5,2,1,10,2,3,4,0,35,1,2,2,4,30,5,1,34,4,4,164.3333333,149.3333333,0,-99,6,100,200,100,149,25,2,11,1,1,41.743954,2,150,200,1.3333334,0,2,1,0,0,1,0,0,0,0,1,0,3,,,,.80625004,,1
41,6,2,17,5,0,0,5,2,1,10,2,3,4,0,35,1,2,3,1,30,5,1,34,4,4,164.3333333,149.3333333,0,-99,6,100,200,100,149,25,2,11,1,1,41.743954,2,150,200,1.3333334,0,2,1,0,0,0,1,0,0,0,1,0,3,,,,.80625004,,1
42,1,1,18,5,0,0,6,2,2,10,1,2,5,29,35,3,1,6,1,30,2,2,0,0,0,0,0,0,-99,2,0,0,0,44,8,2,11,1,1,28.442928,2,10,1,.1,0,2,2,0,1,0,0,0,0,1,0,0,4,,70,42,.80625004,,1
42,1,2,18,5,0,0,6,2,2,10,1,2,5,29,35,3,1,2,2,30,2,2,0,0,0,0,0,0,-99,2,0,0,0,44,8,2,11,1,1,28.442928,2,10,1,.1,0,2,2,1,0,0,0,0,0,1,0,0,4,,70,42,.80625004,,1
42,2,1,18,5,0,0,6,2,2,10,1,3,4,0,35,1,2,1,2,35,4,4,0,0,0,0,0,0,-99,6,0,0,0,15,3,2,11,1,1,28.442928,2,10,1,.1,0,2,2,0,0,0,0,0,0,0,0,0,1,,,,.80625004,,0
42,2,2,18,5,0,0,6,2,2,10,1,3,4,0,35,1,2,4,4,35,4,4,0,0,0,0,0,0,-99,6,0,0,0,15,3,2,11,1,1,28.442928,2,10,1,.1,0,2,2,0,0,0,0,0,0,0,0,0,1,,,,.80625004,,0
42,3,1,18,5,0,0,6,2,2,10,1,3,4,0,70,1,2,2,3,35,3,2,35,3,2,0,0,0,-99,4,0,0,0,50,9,2,11,1,1,28.442928,2,10,1,.1,70,2,2,0,0,1,0,0,0,0,1,0,3,,,,.80625004,,1
42,3,2,18,5,0,0,6,2,2,10,1,3,4,0,0,1,2,3,2,35,3,2,35,3,2,0,0,0,-99,4,0,0,0,50,9,2,11,1,1,28.442928,2,10,1,.1,70,2,2,0,0,0,1,0,0,0,1,0,3,,,,.80625004,,1
42,4,1,18,5,0,0,6,2,2,10,1,23,3,0,35,1,2,3,2,30,3,2,30,3,2,0,0,0,-99,4,0,0,0,45,8,2,11,1,1,28.442928,2,10,1,.1,0,2,2,0,0,0,0,0,0,0,0,0,1,,,,.80625004,,0
42,4,2,18,5,0,0,6,2,2,10,1,23,3,0,35,1,2,0,0,30,3,2,30,3,2,0,0,0,-99,4,0,0,0,45,8,2,11,1,1,28.442928,2,10,1,.1,0,2,2,0,0,0,0,0,0,0,0,0,1,,,,.80625004,,0
42,5,1,18,5,0,0,6,2,2,10,1,2,7,0,70,3,1,5,4,35,1,2,35,3,2,0,0,0,-99,6,0,0,0,50,9,2,11,1,1,28.442928,2,10,1,.1,70,2,2,0,0,0,0,1,0,0,0,1,2,70,,,.80625004,,0
42,5,2,18,5,0,0,6,2,2,10,1,2,7,0,0,3,1,1,2,35,1,2,35,3,2,0,0,0,-99,6,0,0,0,50,9,2,11,1,1,28.442928,2,10,1,.1,70,2,2,0,0,0,0,0,1,0,0,1,2,70,,,.80625004,,0
42,6,1,18,5,0,0,6,2,2,10,1,3,2,0,35,1,2,2,3,30,5,2,35,3,2,185,111.6666667,0,-99,6,200,0,0,250,42,2,11,1,1,28.442928,2,10,1,.1,0,2,2,0,0,1,0,0,0,0,1,0,3,,,,.80625004,,1
42,6,2,18,5,0,0,6,2,2,10,1,3,2,0,35,1,2,4,3,30,5,2,35,3,2,185,111.6666667,0,-99,6,200,0,0,250,42,2,11,1,1,28.442928,2,10,1,.1,0,2,2,0,0,0,1,0,0,0,1,0,3,,,,.80625004,,1
43,1,1,19,5,0,0,7,2,3,9,2,3,6,150,35,1,2,1,4,35,1,4,0,0,0,0,0,0,-99,2,0,0,0,175,30,2,11,2,1,40.629204,2,80,90,1.125,0,2,3,0,1,0,0,0,0,1,0,0,4,,10,42,.80625004,,1
43,1,2,19,5,0,0,7,2,3,9,2,3,6,150,35,1,2,2,3,35,1,4,0,0,0,0,0,0,-99,2,0,0,0,175,30,2,11,2,1,40.629204,2,80,90,1.125,0,2,3,1,0,0,0,0,0,1,0,0,4,,10,42,.80625004,,1
43,2,1,19,5,0,0,7,2,3,9,2,3,7,0,30,1,2,1,1,69,5,1,0,0,0,0,0,0,-99,6,0,0,0,25,5,2,11,2,1,40.629204,2,80,90,1.125,10,2,3,0,0,0,0,0,1,0,0,1,2,10,,,.80625004,,1
43,2,2,19,5,0,0,7,2,3,9,2,3,7,0,40,1,2,5,1,69,5,1,0,0,0,0,0,0,-99,6,0,0,0,25,5,2,11,2,1,40.629204,2,80,90,1.125,10,2,3,0,0,0,0,1,0,0,0,1,2,10,,,.80625004,,1
43,3,1,19,5,0,0,7,2,3,9,2,3,3,0,40,1,2,1,3,35,2,2,0,0,0,0,0,0,-99,4,0,0,0,25,5,2,11,2,1,40.629204,2,80,90,1.125,10,2,3,0,0,0,1,0,0,0,1,0,3,,,,.80625004,,0
43,3,2,19,5,0,0,7,2,3,9,2,3,3,0,30,1,2,2,2,35,2,2,0,0,0,0,0,0,-99,4,0,0,0,25,5,2,11,2,1,40.629204,2,80,90,1.125,10,2,3,0,0,1,0,0,0,0,1,0,3,,,,.80625004,,0
43,4,1,19,5,0,0,7,2,3,9,2,3,7,0,20,1,2,3,3,35,3,3,0,0,0,0,0,0,-99,4,0,0,0,25,5,2,11,2,1,40.629204,2,80,90,1.125,30,2,3,0,0,0,0,0,0,0,0,0,1,,,,.80625004,,1
43,4,2,19,5,0,0,7,2,3,9,2,3,7,0,50,1,2,3,4,35,3,3,0,0,0,0,0,0,-99,4,0,0,0,25,5,2,11,2,1,40.629204,2,80,90,1.125,30,2,3,0,0,0,0,0,0,0,0,0,1,,,,.80625004,,1
43,5,1,19,5,0,0,7,2,3,9,2,2,6,0,35,3,1,6,1,35,3,1,35,3,3,0,0,0,-99,6,0,0,0,60,10,2,11,2,1,40.629204,2,80,90,1.125,0,2,3,0,0,0,0,0,0,0,0,0,1,,,,.80625004,,1
43,5,2,19,5,0,0,7,2,3,9,2,2,6,0,35,3,1,3,1,35,3,1,35,3,3,0,0,0,-99,6,0,0,0,60,10,2,11,2,1,40.629204,2,80,90,1.125,0,2,3,0,0,0,0,0,0,0,0,0,1,,,,.80625004,,1
43,6,1,19,5,0,0,7,2,3,9,2,2,1,0,50,3,1,6,2,35,6,2,35,2,2,165.8333333,145.8333333,0,-99,6,100,200,100,160,27,2,11,2,1,40.629204,2,80,90,1.125,30,2,3,0,0,0,1,0,0,0,1,0,3,,,,.80625004,,1
43,6,2,19,5,0,0,7,2,3,9,2,2,1,0,20,3,1,2,2,35,6,2,35,2,2,165.8333333,145.8333333,0,-99,6,100,200,100,160,27,2,11,2,1,40.629204,2,80,90,1.125,30,2,3,0,0,1,0,0,0,0,1,0,3,,,,.80625004,,1
44,1,1,20,5,0,0,8,2,4,9,1,2,3,350,35,3,1,6,3,35,3,4,35,3,4,0,0,0,-99,2,0,0,0,410,69,2,11,2,1,36.817478,2,150,100,.66666669,0,2,4,0,0,0,0,0,0,0,0,0,1,,20,42,.80625004,,0
44,1,2,20,5,0,0,8,2,4,9,1,2,3,350,35,3,1,3,4,35,3,4,35,3,4,0,0,0,-99,2,0,0,0,410,69,2,11,2,1,36.817478,2,150,100,.66666669,0,2,4,0,0,0,0,0,0,0,0,0,1,,20,42,.80625004,,0
44,2,1,20,5,0,0,8,2,4,9,1,2,6,0,35,3,1,6,2,30,5,4,0,0,0,0,0,0,-99,6,0,0,0,25,5,2,11,2,1,36.817478,2,150,100,.66666669,0,2,4,0,0,0,0,0,0,0,0,0,1,,,,.80625004,,1
44,2,2,20,5,0,0,8,2,4,9,1,2,6,0,35,3,1,3,2,30,5,4,0,0,0,0,0,0,-99,6,0,0,0,25,5,2,11,2,1,36.817478,2,150,100,.66666669,0,2,4,0,0,0,0,0,0,0,0,0,1,,,,.80625004,,1
44,3,1,20,5,0,0,8,2,4,9,1,2,1,0,35,3,1,6,1,30,5,4,35,3,4,0,0,0,-99,4,0,0,0,60,10,2,11,2,1,36.817478,2,150,100,.66666669,0,2,4,0,0,0,1,0,0,0,1,0,3,,,,.80625004,,1
44,3,2,20,5,0,0,8,2,4,9,1,2,1,0,35,3,1,2,1,30,5,4,35,3,4,0,0,0,-99,4,0,0,0,60,10,2,11,2,1,36.817478,2,150,100,.66666669,0,2,4,0,0,1,0,0,0,0,1,0,3,,,,.80625004,,1
44,4,1,20,5,0,0,8,2,4,9,1,2,5,0,20,3,1,6,3,1,2,4,35,3,4,0,0,0,-99,4,0,0,0,60,10,2,11,2,1,36.817478,2,150,100,.66666669,30,2,4,0,1,0,0,0,0,1,0,0,4,,,,.80625004,,1
44,4,2,20,5,0,0,8,2,4,9,1,2,5,0,50,3,1,2,4,1,2,4,35,3,4,0,0,0,-99,4,0,0,0,60,10,2,11,2,1,36.817478,2,150,100,.66666669,30,2,4,1,0,0,0,0,0,1,0,0,4,,,,.80625004,,1
44,5,1,20,5,0,0,8,2,4,9,1,3,7,0,25,1,2,1,2,35,1,2,30,5,4,0,0,0,-99,6,0,0,0,55,10,2,11,2,1,36.817478,2,150,100,.66666669,20,2,4,0,0,0,0,0,1,0,0,1,2,20,,,.80625004,,1
44,5,2,20,5,0,0,8,2,4,9,1,3,7,0,45,1,2,5,2,35,1,2,30,5,4,0,0,0,-99,6,0,0,0,55,10,2,11,2,1,36.817478,2,150,100,.66666669,20,2,4,0,0,0,0,1,0,0,0,1,2,20,,,.80625004,,1
44,6,1,20,5,0,0,8,2,4,9,1,3,3,0,35,1,2,1,4,30,5,4,1,2,4,170.8333333,134.1666667,0,-99,6,200,0,0,226,38,2,11,2,1,36.817478,2,150,100,.66666669,0,2,4,0,0,0,1,0,0,0,1,0,3,,,,.80625004,,0
44,6,2,20,5,0,0,8,2,4,9,1,3,3,0,35,1,2,2,1,30,5,4,1,2,4,170.8333333,134.1666667,0,-99,6,200,0,0,226,38,2,11,2,1,36.817478,2,150,100,.66666669,0,2,4,0,0,1,0,0,0,0,1,0,3,,,,.80625004,,0
45,1,1,21,6,0,0,9,2,1,12,2,3,5,29,35,1,2,2,2,40,2,2,0,0,0,0,0,0,-99,5,0,0,0,59,10,2,12,2,2,28.442928,2,10,1,.1,0,3,1,0,0,0,0,0,0,0,0,0,1,,38,9.5,.89999998,,1
45,1,2,21,6,0,0,9,2,1,12,2,3,5,29,35,1,2,5,2,40,2,2,0,0,0,0,0,0,-99,5,0,0,0,59,10,2,12,2,2,28.442928,2,10,1,.1,0,3,1,0,0,0,0,0,0,0,0,0,1,,38,9.5,.89999998,,1
45,2,1,21,6,0,0,9,2,1,12,2,3,1,0,35,1,2,3,3,35,4,1,0,0,0,0,0,0,-99,1,0,0,0,30,5,2,12,2,2,28.442928,2,10,1,.1,0,3,1,0,0,1,0,0,0,0,1,0,3,,,,.89999998,,1
45,2,2,21,6,0,0,9,2,1,12,2,3,1,0,35,1,2,4,1,35,4,1,0,0,0,0,0,0,-99,1,0,0,0,30,5,2,12,2,2,28.442928,2,10,1,.1,0,3,1,0,0,0,1,0,0,0,1,0,3,,,,.89999998,,1
45,3,1,21,6,0,0,9,2,1,12,2,3,1,0,35,1,2,2,1,35,5,4,40,2,2,0,0,0,-99,4,0,0,0,70,12,2,12,2,2,28.442928,2,10,1,.1,0,3,1,0,0,0,0,0,0,0,0,0,1,,,,.89999998,,0
45,3,2,21,6,0,0,9,2,1,12,2,3,1,0,35,1,2,5,4,35,5,4,40,2,2,0,0,0,-99,4,0,0,0,70,12,2,12,2,2,28.442928,2,10,1,.1,0,3,1,0,0,0,0,0,0,0,0,0,1,,,,.89999998,,0
45,4,1,21,6,0,0,9,2,1,12,2,3,3,0,35,1,2,3,2,40,3,2,40,2,2,0,0,0,-99,6,0,0,0,70,12,2,12,2,2,28.442928,2,10,1,.1,0,3,1,0,0,1,0,0,0,0,1,0,3,,,,.89999998,,1
45,4,2,21,6,0,0,9,2,1,12,2,3,3,0,35,1,2,0,0,40,3,2,40,2,2,0,0,0,-99,6,0,0,0,70,12,2,12,2,2,28.442928,2,10,1,.1,0,3,1,0,0,0,1,0,0,0,1,0,3,,,,.89999998,,1
45,5,1,21,6,0,0,9,2,1,12,2,3,6,0,35,1,2,3,1,35,3,1,35,5,4,0,0,0,-99,5,0,0,0,65,11,2,12,2,2,28.442928,2,10,1,.1,0,3,1,1,0,0,0,0,0,1,0,0,4,,,,.89999998,,1
45,5,2,21,6,0,0,9,2,1,12,2,3,6,0,35,1,2,5,3,35,3,1,35,5,4,0,0,0,-99,5,0,0,0,65,11,2,12,2,2,28.442928,2,10,1,.1,0,3,1,0,1,0,0,0,0,1,0,0,4,,,,.89999998,,1
45,6,1,21,6,0,0,9,2,1,12,2,2,8,0,54,3,1,6,4,35,6,4,40,2,2,185,111.6666667,0,-99,3,170,170,170,240,40,2,12,2,2,28.442928,2,10,1,.1,38,3,1,0,0,0,0,1,0,0,0,1,2,38,,,.89999998,,1
45,6,2,21,6,0,0,9,2,1,12,2,2,8,0,16,3,1,4,4,35,6,4,40,2,2,185,111.6666667,0,-99,3,170,170,170,240,40,2,12,2,2,28.442928,2,10,1,.1,38,3,1,0,0,0,0,0,1,0,0,1,2,38,,,.89999998,,1
46,1,1,22,6,0,0,10,2,2,12,1,3,2,225,35,1,2,1,1,35,1,1,35,1,1,0,0,0,-99,5,0,0,0,290,49,2,12,2,2,41.743954,2,150,225,1.5,0,3,2,0,0,0,0,0,0,0,0,0,1,,0,9.5,.89999998,,1
46,1,2,22,6,0,0,10,2,2,12,1,3,2,225,35,1,2,4,2,35,1,1,35,1,1,0,0,0,-99,5,0,0,0,290,49,2,12,2,2,41.743954,2,150,225,1.5,0,3,2,0,0,0,0,0,0,0,0,0,1,,0,9.5,.89999998,,1
46,2,1,22,6,0,0,10,2,2,12,1,3,6,0,35,1,2,3,2,35,5,4,35,5,4,0,0,0,-99,1,0,0,0,65,11,2,12,2,2,41.743954,2,150,225,1.5,0,3,2,1,0,0,0,0,0,1,0,0,4,,,,.89999998,,1
46,2,2,22,6,0,0,10,2,2,12,1,3,6,0,35,1,2,5,4,35,5,4,35,5,4,0,0,0,-99,1,0,0,0,65,11,2,12,2,2,41.743954,2,150,225,1.5,0,3,2,0,1,0,0,0,0,1,0,0,4,,,,.89999998,,1
46,3,1,22,6,0,0,10,2,2,12,1,2,8,0,35,3,1,6,3,30,6,2,35,5,4,0,0,0,-99,4,0,0,0,65,11,2,12,2,2,41.743954,2,150,225,1.5,0,3,2,0,0,0,0,1,0,0,0,1,2,0,,,.89999998,,0
46,3,2,22,6,0,0,10,2,2,12,1,2,8,0,35,3,1,4,3,30,6,2,35,5,4,0,0,0,-99,4,0,0,0,65,11,2,12,2,2,41.743954,2,150,225,1.5,0,3,2,0,0,0,0,0,1,0,0,1,2,0,,,.89999998,,0
46,4,1,22,6,0,0,10,2,2,12,1,3,4,0,35,1,2,1,1,35,1,1,35,1,1,0,0,0,-99,6,0,0,0,65,11,2,12,2,2,41.743954,2,150,225,1.5,0,3,2,0,0,0,1,0,0,0,1,0,3,,,,.89999998,,0
46,4,2,22,6,0,0,10,2,2,12,1,3,4,0,35,1,2,3,1,35,1,1,35,1,1,0,0,0,-99,6,0,0,0,65,11,2,12,2,2,41.743954,2,150,225,1.5,0,3,2,0,0,1,0,0,0,0,1,0,3,,,,.89999998,,0
46,5,1,22,6,0,0,10,2,2,12,1,3,1,0,35,1,2,3,4,35,3,4,30,6,2,0,0,0,-99,5,0,0,0,60,10,2,12,2,2,41.743954,2,150,225,1.5,0,3,2,0,0,1,0,0,0,0,1,0,3,,,,.89999998,,1
46,5,2,22,6,0,0,10,2,2,12,1,3,1,0,35,1,2,4,2,35,3,4,30,6,2,0,0,0,-99,5,0,0,0,60,10,2,12,2,2,41.743954,2,150,225,1.5,0,3,2,0,0,0,1,0,0,0,1,0,3,,,,.89999998,,1
46,6,1,22,6,0,0,10,2,2,12,1,3,1,0,35,1,2,2,2,30,6,2,35,3,4,164.3333333,149.3333333,0,-99,3,170,0,0,235,40,2,12,2,2,41.743954,2,150,225,1.5,0,3,2,0,0,0,0,0,0,0,0,0,1,,,,.89999998,,1
46,6,2,22,6,0,0,10,2,2,12,1,3,1,0,35,1,2,5,3,30,6,2,35,3,4,164.3333333,149.3333333,0,-99,3,170,0,0,235,40,2,12,2,2,41.743954,2,150,225,1.5,0,3,2,0,0,0,0,0,0,0,0,0,1,,,,.89999998,,1
47,1,1,23,6,0,0,11,2,3,11,2,3,3,125,35,1,2,3,4,35,3,4,0,0,0,0,0,0,-99,5,0,0,0,165,28,2,12,3,2,40.629204,2,50,25,.5,0,3,3,0,0,1,0,0,0,0,1,0,3,,0,9.5,.89999998,,0
47,1,2,23,6,0,0,11,2,3,11,2,3,3,125,35,1,2,5,4,35,3,4,0,0,0,0,0,0,-99,5,0,0,0,165,28,2,12,3,2,40.629204,2,50,25,.5,0,3,3,0,0,0,1,0,0,0,1,0,3,,0,9.5,.89999998,,0
47,2,1,23,6,0,0,11,2,3,11,2,3,2,0,35,1,2,2,3,35,3,1,35,3,1,0,0,0,-99,1,0,0,0,75,13,2,12,3,2,40.629204,2,50,25,.5,0,3,3,0,0,0,1,0,0,0,1,0,3,,,,.89999998,,1
47,2,2,23,6,0,0,11,2,3,11,2,3,2,0,35,1,2,3,1,35,3,1,35,3,1,0,0,0,-99,1,0,0,0,75,13,2,12,3,2,40.629204,2,50,25,.5,0,3,3,0,0,1,0,0,0,0,1,0,3,,,,.89999998,,1
47,3,1,23,6,0,0,11,2,3,11,2,3,8,0,35,1,2,4,3,35,6,2,35,3,1,0,0,0,-99,4,0,0,0,75,13,2,12,3,2,40.629204,2,50,25,.5,0,3,3,0,0,0,0,0,1,0,0,1,2,0,,,.89999998,,0
47,3,2,23,6,0,0,11,2,3,11,2,3,8,0,35,1,2,6,2,35,6,2,35,3,1,0,0,0,-99,4,0,0,0,75,13,2,12,3,2,40.629204,2,50,25,.5,0,3,3,0,0,0,0,1,0,0,0,1,2,0,,,.89999998,,0
47,4,1,23,6,0,0,11,2,3,11,2,3,5,0,35,1,2,2,4,69,2,4,0,0,0,0,0,0,-99,6,0,0,0,40,7,2,12,3,2,40.629204,2,50,25,.5,0,3,3,0,0,0,0,0,0,0,0,0,1,,,,.89999998,,1
47,4,2,23,6,0,0,11,2,3,11,2,3,5,0,35,1,2,5,4,69,2,4,0,0,0,0,0,0,-99,6,0,0,0,40,7,2,12,3,2,40.629204,2,50,25,.5,0,3,3,0,0,0,0,0,0,0,0,0,1,,,,.89999998,,1
47,5,1,23,6,0,0,11,2,3,11,2,3,8,0,35,1,2,2,1,0,2,1,0,2,1,0,0,0,-99,5,0,0,0,40,7,2,12,3,2,40.629204,2,50,25,.5,0,3,3,0,0,0,0,0,0,0,0,0,1,,,,.89999998,,1
47,5,2,23,6,0,0,11,2,3,11,2,3,8,0,35,1,2,2,3,0,2,1,0,2,1,0,0,0,-99,5,0,0,0,40,7,2,12,3,2,40.629204,2,50,25,.5,0,3,3,0,0,0,0,0,0,0,0,0,1,,,,.89999998,,1
47,6,1,23,6,0,0,11,2,3,11,2,3,5,0,35,1,2,3,3,30,6,3,35,3,1,165.8333333,145.8333333,0,-99,3,170,170,170,245,41,2,12,3,2,40.629204,2,50,25,.5,0,3,3,1,0,0,0,0,0,1,0,0,4,,,,.89999998,,1
47,6,2,23,6,0,0,11,2,3,11,2,3,5,0,35,1,2,4,2,30,6,3,35,3,1,165.8333333,145.8333333,0,-99,3,170,170,170,245,41,2,12,3,2,40.629204,2,50,25,.5,0,3,3,0,1,0,0,0,0,1,0,0,4,,,,.89999998,,1
48,1,1,24,6,0,0,12,2,4,11,1,3,4,225,35,1,2,1,3,30,1,3,0,0,0,0,0,0,-99,5,0,0,0,265,45,2,12,3,2,33.186855,2,150,225,1.5,0,3,4,0,0,0,1,0,0,0,1,0,3,,0,9.5,.89999998,,1
48,1,2,24,6,0,0,12,2,4,11,1,3,4,225,35,1,2,3,3,30,1,3,0,0,0,0,0,0,-99,5,0,0,0,265,45,2,12,3,2,33.186855,2,150,225,1.5,0,3,4,0,0,1,0,0,0,0,1,0,3,,0,9.5,.89999998,,1
48,2,1,24,6,0,0,12,2,4,11,1,3,8,0,35,1,2,2,2,20,2,4,20,2,4,0,0,0,-99,1,0,0,0,60,10,2,12,3,2,33.186855,2,150,225,1.5,0,3,4,0,0,0,0,0,0,0,0,0,1,,,,.89999998,,0
48,2,2,24,6,0,0,12,2,4,11,1,3,8,0,35,1,2,2,4,20,2,4,20,2,4,0,0,0,-99,1,0,0,0,60,10,2,12,3,2,33.186855,2,150,225,1.5,0,3,4,0,0,0,0,0,0,0,0,0,1,,,,.89999998,,0
48,3,1,24,6,0,0,12,2,4,11,1,3,5,0,40,1,2,3,4,20,4,1,30,1,3,0,0,0,-99,4,0,0,0,70,12,2,12,3,2,33.186855,2,150,225,1.5,10,3,4,1,0,0,0,0,0,1,0,0,4,,,,.89999998,,1
48,3,2,24,6,0,0,12,2,4,11,1,3,5,0,30,1,2,4,1,20,4,1,30,1,3,0,0,0,-99,4,0,0,0,70,12,2,12,3,2,33.186855,2,150,225,1.5,10,3,4,0,1,0,0,0,0,1,0,0,4,,,,.89999998,,1
48,4,1,24,6,0,0,12,2,4,11,1,3,2,0,35,1,2,1,3,70,1,3,30,1,3,0,0,0,-99,6,0,0,0,70,12,2,12,3,2,33.186855,2,150,225,1.5,0,3,4,0,0,0,0,0,0,0,0,0,1,,,,.89999998,,0
48,4,2,24,6,0,0,12,2,4,11,1,3,2,0,35,1,2,4,4,70,1,3,30,1,3,0,0,0,-99,6,0,0,0,70,12,2,12,3,2,33.186855,2,150,225,1.5,0,3,4,0,0,0,0,0,0,0,0,0,1,,,,.89999998,,0
48,5,1,24,6,0,0,12,2,4,11,1,3,2,0,30,1,2,2,4,35,2,4,70,1,3,0,0,0,-99,5,0,0,0,110,19,2,12,3,2,33.186855,2,150,225,1.5,10,3,4,0,0,0,1,0,0,0,1,0,3,,,,.89999998,,0
48,5,2,24,6,0,0,12,2,4,11,1,3,2,0,40,1,2,3,2,35,2,4,70,1,3,0,0,0,-99,5,0,0,0,110,19,2,12,3,2,33.186855,2,150,225,1.5,10,3,4,0,0,1,0,0,0,0,1,0,3,,,,.89999998,,0
48,6,1,24,6,0,0,12,2,4,11,1,3,8,0,35,1,2,4,4,30,6,4,20,2,4,179.1666667,125.8333333,0,-99,3,170,0,0,230,39,2,12,3,2,33.186855,2,150,225,1.5,0,3,4,0,0,0,0,0,1,0,0,1,2,0,,,.89999998,,1
48,6,2,24,6,0,0,12,2,4,11,1,3,8,0,35,1,2,6,1,30,6,4,20,2,4,179.1666667,125.8333333,0,-99,3,170,0,0,230,39,2,12,3,2,33.186855,2,150,225,1.5,0,3,4,0,0,0,0,1,0,0,0,1,2,0,,,.89999998,,1
49,1,1,1,1,0,0,1,1,1,2,2,1,2,275,35,2,3,4,2,35,6,2,0,0,0,0,0,0,-99,5,0,0,0,330,55,3,13,4,3,40.629204,2,150,225,1.5,0,4,1,0,0,1,0,0,0,0,1,0,3,,0,0,,117.5,0
49,1,2,1,1,0,0,1,1,1,2,2,1,2,275,35,2,3,6,2,35,6,2,0,0,0,0,0,0,-99,5,0,0,0,330,55,3,13,4,3,40.629204,2,150,225,1.5,0,4,1,0,0,0,1,0,0,0,1,0,3,,0,0,,117.5,0
49,2,1,1,1,0,0,1,1,1,2,2,1,7,275,35,2,3,5,1,30,1,1,30,1,1,0,0,0,-99,3,0,0,0,360,60,3,13,4,3,40.629204,2,150,225,1.5,0,4,1,0,0,0,0,0,0,0,0,0,1,,,,,117.5,1
49,2,2,1,1,0,0,1,1,1,2,2,1,7,275,35,2,3,5,3,30,1,1,30,1,1,0,0,0,-99,3,0,0,0,360,60,3,13,4,3,40.629204,2,150,225,1.5,0,4,1,0,0,0,0,0,0,0,0,0,1,,,,,117.5,1
49,3,1,1,1,0,0,1,1,1,2,2,1,7,275,35,2,3,1,4,35,3,1,0,0,0,0,0,0,-99,6,0,0,0,330,55,3,13,4,3,40.629204,2,150,225,1.5,0,4,1,0,0,0,0,1,0,0,0,1,2,0,,,,117.5,0
49,3,2,1,1,0,0,1,1,1,2,2,1,7,275,35,2,3,3,1,35,3,1,0,0,0,0,0,0,-99,6,0,0,0,330,55,3,13,4,3,40.629204,2,150,225,1.5,0,4,1,0,0,0,0,0,1,0,0,1,2,0,,,,117.5,0
49,4,1,1,1,0,0,1,1,1,2,2,1,4,275,35,2,3,3,1,35,3,1,35,6,2,0,0,0,-99,4,0,0,0,365,61,3,13,4,3,40.629204,2,150,225,1.5,0,4,1,0,0,0,0,0,0,0,0,0,1,,,,,117.5,1
49,4,2,1,1,0,0,1,1,1,2,2,1,4,275,35,2,3,6,2,35,3,1,35,6,2,0,0,0,-99,4,0,0,0,365,61,3,13,4,3,40.629204,2,150,225,1.5,0,4,1,0,0,0,0,0,0,0,0,0,1,,,,,117.5,1
49,5,1,1,1,0,0,1,1,1,2,2,1,4,275,35,2,3,4,3,50,4,3,35,3,1,0,0,0,-99,6,0,0,0,365,61,3,13,4,3,40.629204,2,150,225,1.5,0,4,1,0,0,1,0,0,0,0,1,0,3,,,,,117.5,1
49,5,2,1,1,0,0,1,1,1,2,2,1,4,275,35,2,3,5,1,50,4,3,35,3,1,0,0,0,-99,6,0,0,0,365,61,3,13,4,3,40.629204,2,150,225,1.5,0,4,1,0,0,0,1,0,0,0,1,0,3,,,,,117.5,1
49,6,1,1,1,0,0,1,1,1,2,2,1,6,275,35,2,3,3,4,50,4,1,50,4,3,165.833333333333,145.833333333333,0,-99,5,138,163,138,518,87,3,13,4,3,40.629204,2,150,225,1.5,0,4,1,0,1,0,0,0,0,1,0,0,4,,,,,117.5,1
49,6,2,1,1,0,0,1,1,1,2,2,1,6,275,35,2,3,4,1,50,4,1,50,4,3,165.833333333333,145.833333333333,0,-99,5,138,163,138,518,87,3,13,4,3,40.629204,2,150,225,1.5,0,4,1,1,0,0,0,0,0,1,0,0,4,,,,,117.5,1
50,1,1,2,1,0,0,2,1,2,2,1,1,1,185,35,2,3,2,1,35,4,1,0,0,0,0,0,0,-99,5,0,0,0,250,42,3,13,5,3,38.554276,2,20,5,.25,0,4,2,0,0,0,1,0,0,0,1,0,3,,0,0,,117.5,1
50,1,2,2,1,0,0,2,1,2,2,1,1,1,185,35,2,3,4,1,35,4,1,0,0,0,0,0,0,-99,5,0,0,0,250,42,3,13,5,3,38.554276,2,20,5,.25,0,4,2,0,0,1,0,0,0,0,1,0,3,,0,0,,117.5,1
50,2,1,2,1,0,0,2,1,2,2,1,1,4,185,35,2,3,4,4,30,1,2,0,0,0,0,0,0,-99,3,0,0,0,250,42,3,13,5,3,38.554276,2,20,5,.25,0,4,2,0,0,1,0,0,0,0,1,0,3,,,,,117.5,1
50,2,2,2,1,0,0,2,1,2,2,1,1,4,185,35,2,3,5,2,30,1,2,0,0,0,0,0,0,-99,3,0,0,0,250,42,3,13,5,3,38.554276,2,20,5,.25,0,4,2,0,0,0,1,0,0,0,1,0,3,,,,,117.5,1
50,3,1,2,1,0,0,2,1,2,2,1,1,6,185,20,2,3,3,3,30,4,2,30,4,2,0,0,0,-99,6,0,0,0,280,47,3,13,5,3,38.554276,2,20,5,.25,30,4,2,0,1,0,0,0,0,1,0,0,4,,,,,117.5,1
50,3,2,2,1,0,0,2,1,2,2,1,1,6,185,50,2,3,4,2,30,4,2,30,4,2,0,0,0,-99,6,0,0,0,280,47,3,13,5,3,38.554276,2,20,5,.25,30,4,2,1,0,0,0,0,0,1,0,0,4,,,,,117.5,1
50,4,1,2,1,0,0,2,1,2,2,1,1,6,185,35,2,3,2,1,35,2,1,30,1,2,0,0,0,-99,4,0,0,0,280,47,3,13,5,3,38.554276,2,20,5,.25,0,4,2,0,0,0,0,0,0,0,0,0,1,,,,,117.5,1
50,4,2,2,1,0,0,2,1,2,2,1,1,6,185,35,2,3,5,1,35,2,1,30,1,2,0,0,0,-99,4,0,0,0,280,47,3,13,5,3,38.554276,2,20,5,.25,0,4,2,0,0,0,0,0,0,0,0,0,1,,,,,117.5,1
50,5,1,2,1,0,0,2,1,2,2,1,1,7,185,35,2,3,5,2,0,5,2,30,4,2,0,0,0,-99,6,0,0,0,280,47,3,13,5,3,38.554276,2,20,5,.25,0,4,2,0,0,0,0,0,0,0,0,0,1,,,,,117.5,1
50,5,2,2,1,0,0,2,1,2,2,1,1,7,185,35,2,3,5,4,0,5,2,30,4,2,0,0,0,-99,6,0,0,0,280,47,3,13,5,3,38.554276,2,20,5,.25,0,4,2,0,0,0,0,0,0,0,0,0,1,,,,,117.5,1
50,6,1,2,1,0,0,2,1,2,2,1,1,7,185,35,2,3,1,3,35,3,2,35,4,1,168.666666666666,139.5,0,-99,5,163,0,0,448,75,3,13,5,3,38.554276,2,20,5,.25,0,4,2,0,0,0,0,1,0,0,0,1,2,0,,,,117.5,1
50,6,2,2,1,0,0,2,1,2,2,1,1,7,185,35,2,3,3,2,35,3,2,35,4,1,168.666666666666,139.5,0,-99,5,163,0,0,448,75,3,13,5,3,38.554276,2,20,5,.25,0,4,2,0,0,0,0,0,1,0,0,1,2,0,,,,117.5,1
51,1,1,3,1,0,0,3,1,3,1,2,1,4,150,35,2,3,3,3,35,6,4,0,0,0,0,0,0,-99,5,0,0,0,215,36,3,13,5,3,37.023232,2,150,100,.66666669,0,4,3,0,0,0,0,0,0,0,0,0,1,,0,0,,117.5,1
51,1,2,3,1,0,0,3,1,3,1,2,1,4,150,35,2,3,6,4,35,6,4,0,0,0,0,0,0,-99,5,0,0,0,215,36,3,13,5,3,37.023232,2,150,100,.66666669,0,4,3,0,0,0,0,0,0,0,0,0,1,,0,0,,117.5,1
51,2,1,3,1,0,0,3,1,3,1,2,1,5,150,70,2,3,2,1,30,1,3,0,0,0,0,0,0,-99,3,0,0,0,215,36,3,13,5,3,37.023232,2,150,100,.66666669,70,4,3,0,1,0,0,0,0,1,0,0,4,,,,,117.5,1
51,2,2,3,1,0,0,3,1,3,1,2,1,5,150,0,2,3,4,3,30,1,3,0,0,0,0,0,0,-99,3,0,0,0,215,36,3,13,5,3,37.023232,2,150,100,.66666669,70,4,3,1,0,0,0,0,0,1,0,0,4,,,,,117.5,1
51,3,1,3,1,0,0,3,1,3,1,2,1,3,150,35,2,3,2,2,35,5,3,0,0,0,0,0,0,-99,6,0,0,0,215,36,3,13,5,3,37.023232,2,150,100,.66666669,0,4,3,0,0,0,0,0,0,0,0,0,1,,,,,117.5,1
51,3,2,3,1,0,0,3,1,3,1,2,1,3,150,35,2,3,5,3,35,5,3,0,0,0,0,0,0,-99,6,0,0,0,215,36,3,13,5,3,37.023232,2,150,100,.66666669,0,4,3,0,0,0,0,0,0,0,0,0,1,,,,,117.5,1
51,4,1,3,1,0,0,3,1,3,1,2,1,2,150,35,2,3,4,4,35,4,4,35,4,4,0,0,0,-99,4,0,0,0,250,42,3,13,5,3,37.023232,2,150,100,.66666669,0,4,3,0,0,1,0,0,0,0,1,0,3,,,,,117.5,0
51,4,2,3,1,0,0,3,1,3,1,2,1,2,150,35,2,3,6,4,35,4,4,35,4,4,0,0,0,-99,4,0,0,0,250,42,3,13,5,3,37.023232,2,150,100,.66666669,0,4,3,0,0,0,1,0,0,0,1,0,3,,,,,117.5,0
51,5,1,3,1,0,0,3,1,3,1,2,1,3,150,35,2,3,3,3,35,3,3,35,3,3,0,0,0,-99,6,0,0,0,250,42,3,13,5,3,37.023232,2,150,100,.66666669,0,4,3,0,0,0,1,0,0,0,1,0,3,,,,,117.5,1
51,5,2,3,1,0,0,3,1,3,1,2,1,3,150,35,2,3,4,1,35,3,3,35,3,3,0,0,0,-99,6,0,0,0,250,42,3,13,5,3,37.023232,2,150,100,.66666669,0,4,3,0,0,1,0,0,0,0,1,0,3,,,,,117.5,1
51,6,1,3,1,0,0,3,1,3,1,2,2,7,150,35,3,1,3,2,35,3,2,35,4,4,174.166666666666,137.5,0,-99,5,100,200,100,350,59,3,13,5,3,37.023232,2,150,100,.66666669,0,4,3,0,0,0,0,0,1,0,0,1,2,0,,,,117.5,1
51,6,2,3,1,0,0,3,1,3,1,2,2,7,150,35,3,1,1,2,35,3,2,35,4,4,174.166666666666,137.5,0,-99,5,100,200,100,350,59,3,13,5,3,37.023232,2,150,100,.66666669,0,4,3,0,0,0,0,1,0,0,0,1,2,0,,,,117.5,1
52,1,1,4,1,0,0,4,1,4,1,1,1,6,50,35,2,3,2,3,70,5,3,0,0,0,0,0,0,-99,5,0,0,0,105,18,3,13,4,3,32.391392,2,150,0,0,0,4,4,0,0,0,0,0,0,0,0,0,1,,0,0,,117.5,0
52,1,2,4,1,0,0,4,1,4,1,1,1,6,50,35,2,3,5,3,70,5,3,0,0,0,0,0,0,-99,5,0,0,0,105,18,3,13,4,3,32.391392,2,150,0,0,0,4,4,0,0,0,0,0,0,0,0,0,1,,0,0,,117.5,0
52,2,1,4,1,0,0,4,1,4,1,1,1,3,50,35,2,3,3,4,30,1,4,0,0,0,0,0,0,-99,3,0,0,0,105,18,3,13,4,3,32.391392,2,150,0,0,0,4,4,0,0,0,1,0,0,0,1,0,3,,,,,117.5,0
52,2,2,4,1,0,0,4,1,4,1,1,1,3,50,35,2,3,4,2,30,1,4,0,0,0,0,0,0,-99,3,0,0,0,105,18,3,13,4,3,32.391392,2,150,0,0,0,4,4,0,0,1,0,0,0,0,1,0,3,,,,,117.5,0
52,3,1,4,1,0,0,4,1,4,1,1,2,7,50,35,3,1,3,1,35,3,1,70,5,3,0,0,0,-99,6,0,0,0,175,30,3,13,4,3,32.391392,2,150,0,0,0,4,4,0,0,0,0,0,1,0,0,1,2,0,,,,117.5,0
52,3,2,4,1,0,0,4,1,4,1,1,2,7,50,35,3,1,1,1,35,3,1,70,5,3,0,0,0,-99,6,0,0,0,175,30,3,13,4,3,32.391392,2,150,0,0,0,4,4,0,0,0,0,1,0,0,0,1,2,0,,,,117.5,0
52,4,1,4,1,0,0,4,1,4,1,1,1,1,50,35,2,3,2,3,35,2,3,35,2,3,0,0,0,-99,4,0,0,0,140,24,3,13,4,3,32.391392,2,150,0,0,0,4,4,0,0,0,1,0,0,0,1,0,3,,,,,117.5,0
52,4,2,4,1,0,0,4,1,4,1,1,1,1,50,35,2,3,4,3,35,2,3,35,2,3,0,0,0,-99,4,0,0,0,140,24,3,13,4,3,32.391392,2,150,0,0,0,4,4,0,0,1,0,0,0,0,1,0,3,,,,,117.5,0
52,5,1,4,1,0,0,4,1,4,1,1,1,5,50,35,2,3,2,2,35,2,2,70,5,3,0,0,0,-99,6,0,0,0,175,30,3,13,4,3,32.391392,2,150,0,0,0,4,4,0,1,0,0,0,0,1,0,0,4,,,,,117.5,1
52,5,2,4,1,0,0,4,1,4,1,1,1,5,50,35,2,3,4,4,35,2,2,70,5,3,0,0,0,-99,6,0,0,0,175,30,3,13,4,3,32.391392,2,150,0,0,0,4,4,1,0,0,0,0,0,1,0,0,4,,,,,117.5,1
52,6,1,4,1,0,0,4,1,4,1,1,1,3,50,35,2,3,2,1,35,5,4,35,3,1,180,123.333333333333,0,-99,5,200,0,0,340,57,3,13,4,3,32.391392,2,150,0,0,0,4,4,0,0,0,0,0,0,0,0,0,1,,,,,117.5,0
52,6,2,4,1,0,0,4,1,4,1,1,1,3,50,35,2,3,5,4,35,5,4,35,3,1,180,123.333333333333,0,-99,5,200,0,0,340,57,3,13,4,3,32.391392,2,150,0,0,0,4,4,0,0,0,0,0,0,0,0,0,1,,,,,117.5,0
53,1,1,5,2,0,0,5,1,1,4,2,2,1,180,35,3,1,4,1,35,4,1,0,0,0,0,0,0,-99,4,0,0,0,205,35,3,14,2,1,28.442928,2,20,0,0,0,5,1,0,0,0,0,0,0,0,0,0,1,,0,7.5,,36,1
53,1,2,5,2,0,0,5,1,1,4,2,2,1,180,35,3,1,1,2,35,4,1,0,0,0,0,0,0,-99,4,0,0,0,205,35,3,14,2,1,28.442928,2,20,0,0,0,5,1,0,0,0,0,0,0,0,0,0,1,,0,7.5,,36,1
53,2,1,5,2,0,0,5,1,1,4,2,2,5,180,35,3,1,4,3,70,1,3,0,0,0,0,0,0,-99,1,0,0,0,205,35,3,14,2,1,28.442928,2,20,0,0,0,5,1,0,0,0,0,0,0,0,0,0,1,,,,,36,1
53,2,2,5,2,0,0,5,1,1,4,2,2,5,180,35,3,1,1,3,70,1,3,0,0,0,0,0,0,-99,1,0,0,0,205,35,3,14,2,1,28.442928,2,20,0,0,0,5,1,0,0,0,0,0,0,0,0,0,1,,,,,36,1
53,3,1,5,2,0,0,5,1,1,4,2,1,1,180,35,2,3,5,4,35,6,1,70,1,3,0,0,0,-99,4,0,0,0,275,46,3,14,2,1,28.442928,2,20,0,0,0,5,1,0,0,1,0,0,0,0,1,0,3,,,,,36,0
53,3,2,5,2,0,0,5,1,1,4,2,1,1,180,35,2,3,6,1,35,6,1,70,1,3,0,0,0,-99,4,0,0,0,275,46,3,14,2,1,28.442928,2,20,0,0,0,5,1,0,0,0,1,0,0,0,1,0,3,,,,,36,0
53,4,1,5,2,0,0,5,1,1,4,2,2,6,180,35,3,1,5,1,30,2,1,30,2,1,0,0,0,-99,4,0,0,0,235,40,3,14,2,1,28.442928,2,20,0,0,0,5,1,1,0,0,0,0,0,1,0,0,4,,,,,36,1
53,4,2,5,2,0,0,5,1,1,4,2,2,6,180,35,3,1,1,2,30,2,1,30,2,1,0,0,0,-99,4,0,0,0,235,40,3,14,2,1,28.442928,2,20,0,0,0,5,1,0,1,0,0,0,0,1,0,0,4,,,,,36,1
53,5,1,5,2,0,0,5,1,1,4,2,1,8,180,35,2,3,2,3,35,2,3,35,4,1,0,0,0,-99,1,0,0,0,240,40,3,14,2,1,28.442928,2,20,0,0,0,5,1,0,0,0,0,1,0,0,0,1,2,0,,,,36,0
53,5,2,5,2,0,0,5,1,1,4,2,1,8,180,35,2,3,6,3,35,2,3,35,4,1,0,0,0,-99,1,0,0,0,240,40,3,14,2,1,28.442928,2,20,0,0,0,5,1,0,0,0,0,0,1,0,0,1,2,0,,,,36,0
53,6,1,5,2,0,0,5,1,1,4,2,2,3,180,35,3,1,5,4,35,5,4,35,4,1,185,111.666666666666,0,-99,1,170,170,170,410,69,3,14,2,1,28.442928,2,20,0,0,0,5,1,0,0,1,0,0,0,0,1,0,3,,,,,36,1
53,6,2,5,2,0,0,5,1,1,4,2,2,3,180,35,3,1,1,4,35,5,4,35,4,1,185,111.666666666666,0,-99,1,170,170,170,410,69,3,14,2,1,28.442928,2,20,0,0,0,5,1,0,0,0,1,0,0,0,1,0,3,,,,,36,1
54,1,1,6,2,0,0,6,1,2,4,1,1,5,200,70,2,3,5,2,35,6,1,0,0,0,0,0,0,-99,4,0,0,0,235,40,3,14,3,1,30.838501,2,50,50,1,70,5,2,1,0,0,0,0,0,1,0,0,4,,30,7.5,,36,1
54,1,2,6,2,0,0,6,1,2,4,1,1,5,200,0,2,3,6,1,35,6,1,0,0,0,0,0,0,-99,4,0,0,0,235,40,3,14,3,1,30.838501,2,50,50,1,70,5,2,0,1,0,0,0,0,1,0,0,4,,30,7.5,,36,1
54,2,1,6,2,0,0,6,1,2,4,1,1,8,200,50,2,3,2,4,30,2,2,0,0,0,0,0,0,-99,1,0,0,0,235,40,3,14,3,1,30.838501,2,50,50,1,30,5,2,0,0,0,0,1,0,0,0,1,2,30,,,,36,0
54,2,2,6,2,0,0,6,1,2,4,1,1,8,200,20,2,3,6,4,30,2,2,0,0,0,0,0,0,-99,1,0,0,0,235,40,3,14,3,1,30.838501,2,50,50,1,30,5,2,0,0,0,0,0,1,0,0,1,2,30,,,,36,0
54,3,1,6,2,0,0,6,1,2,4,1,2,3,200,35,3,1,5,3,35,5,3,0,0,0,0,0,0,-99,4,0,0,0,235,40,3,14,3,1,30.838501,2,50,50,1,0,5,2,0,0,1,0,0,0,0,1,0,3,,,,,36,1
54,3,2,6,2,0,0,6,1,2,4,1,2,3,200,35,3,1,1,3,35,5,3,0,0,0,0,0,0,-99,4,0,0,0,235,40,3,14,3,1,30.838501,2,50,50,1,0,5,2,0,0,0,1,0,0,0,1,0,3,,,,,36,1
54,4,1,6,2,0,0,6,1,2,4,1,1,8,200,35,2,3,4,1,35,4,1,35,5,3,0,0,0,-99,4,0,0,0,270,45,3,14,3,1,30.838501,2,50,50,1,0,5,2,0,0,0,0,0,0,0,0,0,1,,,,,36,1
54,4,2,6,2,0,0,6,1,2,4,1,1,8,200,35,2,3,4,2,35,4,1,35,5,3,0,0,0,-99,4,0,0,0,270,45,3,14,3,1,30.838501,2,50,50,1,0,5,2,0,0,0,0,0,0,0,0,0,1,,,,,36,1
54,5,1,6,2,0,0,6,1,2,4,1,2,5,200,35,3,1,4,4,30,2,2,35,5,3,0,0,0,-99,1,0,0,0,270,45,3,14,3,1,30.838501,2,50,50,1,0,5,2,0,0,0,0,0,0,0,0,0,1,,,,,36,1
54,5,2,6,2,0,0,6,1,2,4,1,2,5,200,35,3,1,1,4,30,2,2,35,5,3,0,0,0,-99,1,0,0,0,270,45,3,14,3,1,30.838501,2,50,50,1,0,5,2,0,0,0,0,0,0,0,0,0,1,,,,,36,1
54,6,1,6,2,0,0,6,1,2,4,1,1,1,200,35,2,3,5,3,35,6,2,35,5,3,182.166666666666,118.833333333333,0,-99,1,170,0,0,440,74,3,14,3,1,30.838501,2,50,50,1,0,5,2,0,0,1,0,0,0,0,1,0,3,,,,,36,1
54,6,2,6,2,0,0,6,1,2,4,1,1,1,200,35,2,3,6,2,35,6,2,35,5,3,182.166666666666,118.833333333333,0,-99,1,170,0,0,440,74,3,14,3,1,30.838501,2,50,50,1,0,5,2,0,0,0,1,0,0,0,1,0,3,,,,,36,1
55,1,1,7,2,0,0,7,1,3,3,2,2,6,200,70,3,1,5,3,0,5,3,0,0,0,0,0,0,-99,4,0,0,0,225,38,3,14,2,1,32.391392,2,0,0,,70,5,3,1,0,0,0,0,0,1,0,0,4,,0,7.5,,36,1
55,1,2,7,2,0,0,7,1,3,3,2,2,6,200,0,3,1,1,4,0,5,3,0,0,0,0,0,0,-99,4,0,0,0,225,38,3,14,2,1,32.391392,2,0,0,,70,5,3,0,1,0,0,0,0,1,0,0,4,,0,7.5,,36,1
55,2,1,7,2,0,0,7,1,3,3,2,1,2,200,35,2,3,3,1,30,2,3,0,0,0,0,0,0,-99,1,0,0,0,225,38,3,14,2,1,32.391392,2,0,0,,0,5,3,0,0,0,0,0,0,0,0,0,1,,,,,36,0
55,2,2,7,2,0,0,7,1,3,3,2,1,2,200,35,2,3,6,3,30,2,3,0,0,0,0,0,0,-99,1,0,0,0,225,38,3,14,2,1,32.391392,2,0,0,,0,5,3,0,0,0,0,0,0,0,0,0,1,,,,,36,0
55,3,1,7,2,0,0,7,1,3,3,2,1,4,200,35,2,3,3,2,35,5,2,0,0,0,0,0,0,-99,4,0,0,0,225,38,3,14,2,1,32.391392,2,0,0,,0,5,3,0,0,0,1,0,0,0,1,0,3,,,,,36,0
55,3,2,7,2,0,0,7,1,3,3,2,1,4,200,35,2,3,5,2,35,5,2,0,0,0,0,0,0,-99,4,0,0,0,225,38,3,14,2,1,32.391392,2,0,0,,0,5,3,0,0,1,0,0,0,0,1,0,3,,,,,36,0
55,4,1,7,2,0,0,7,1,3,3,2,2,1,200,35,3,1,4,3,30,2,3,0,5,3,0,0,0,-99,4,0,0,0,225,38,3,14,2,1,32.391392,2,0,0,,0,5,3,0,0,0,0,0,0,0,0,0,1,,,,,36,1
55,4,2,7,2,0,0,7,1,3,3,2,2,1,200,35,3,1,1,4,30,2,3,0,5,3,0,0,0,-99,4,0,0,0,225,38,3,14,2,1,32.391392,2,0,0,,0,5,3,0,0,0,0,0,0,0,0,0,1,,,,,36,1
55,5,1,7,2,0,0,7,1,3,3,2,2,8,200,35,3,1,6,3,30,2,3,35,5,2,0,0,0,-99,1,0,0,0,260,44,3,14,2,1,32.391392,2,0,0,,0,5,3,0,0,0,0,0,1,0,0,1,2,0,,,,36,0
55,5,2,7,2,0,0,7,1,3,3,2,2,8,200,35,3,1,2,1,30,2,3,35,5,2,0,0,0,-99,1,0,0,0,260,44,3,14,2,1,32.391392,2,0,0,,0,5,3,0,0,0,0,1,0,0,0,1,2,0,,,,36,0
55,6,1,7,2,0,0,7,1,3,3,2,1,2,200,35,2,3,4,3,35,5,2,35,5,2,180,123.333333333333,0,-99,1,170,170,170,430,72,3,14,2,1,32.391392,2,0,0,,0,5,3,0,0,0,1,0,0,0,1,0,3,,,,,36,1
55,6,2,7,2,0,0,7,1,3,3,2,1,2,200,35,2,3,5,2,35,5,2,35,5,2,180,123.333333333333,0,-99,1,170,170,170,430,72,3,14,2,1,32.391392,2,0,0,,0,5,3,0,0,1,0,0,0,0,1,0,3,,,,,36,1
56,1,1,8,2,0,0,8,1,4,3,1,1,8,196,35,2,3,4,3,35,4,4,0,0,0,0,0,0,-99,4,0,0,0,211,36,3,14,1,1,32.391392,2,74,70,.94594592,0,5,4,0,0,0,0,0,0,0,0,0,1,,0,7.5,,36,1
56,1,2,8,2,0,0,8,1,4,3,1,1,8,196,35,2,3,4,4,35,4,4,0,0,0,0,0,0,-99,4,0,0,0,211,36,3,14,1,1,32.391392,2,74,70,.94594592,0,5,4,0,0,0,0,0,0,0,0,0,1,,0,7.5,,36,1
56,2,1,8,2,0,0,8,1,4,3,1,2,8,196,35,3,1,6,4,50,2,2,0,0,0,0,0,0,-99,1,0,0,0,211,36,3,14,1,1,32.391392,2,74,70,.94594592,0,5,4,0,0,0,0,0,1,0,0,1,2,0,,,,36,1
56,2,2,8,2,0,0,8,1,4,3,1,2,8,196,35,3,1,2,2,50,2,2,0,0,0,0,0,0,-99,1,0,0,0,211,36,3,14,1,1,32.391392,2,74,70,.94594592,0,5,4,0,0,0,0,1,0,0,0,1,2,0,,,,36,1
56,3,1,8,2,0,0,8,1,4,3,1,1,2,196,35,2,3,4,4,35,5,1,35,5,1,0,0,0,-99,4,0,0,0,246,41,3,14,1,1,32.391392,2,74,70,.94594592,0,5,4,0,0,0,1,0,0,0,1,0,3,,,,,36,1
56,3,2,8,2,0,0,8,1,4,3,1,1,2,196,35,2,3,5,1,35,5,1,35,5,1,0,0,0,-99,4,0,0,0,246,41,3,14,1,1,32.391392,2,74,70,.94594592,0,5,4,0,0,1,0,0,0,0,1,0,3,,,,,36,1
56,4,1,8,2,0,0,8,1,4,3,1,1,5,196,35,2,3,5,4,35,5,4,50,2,2,0,0,0,-99,4,0,0,0,261,44,3,14,1,1,32.391392,2,74,70,.94594592,0,5,4,1,0,0,0,0,0,1,0,0,4,,,,,36,1
56,4,2,8,2,0,0,8,1,4,3,1,1,5,196,35,2,3,6,3,35,5,4,50,2,2,0,0,0,-99,4,0,0,0,261,44,3,14,1,1,32.391392,2,74,70,.94594592,0,5,4,0,1,0,0,0,0,1,0,0,4,,,,,36,1
56,5,1,8,2,0,0,8,1,4,3,1,1,2,196,35,2,3,3,2,35,3,2,35,5,1,0,0,0,-99,1,0,0,0,246,41,3,14,1,1,32.391392,2,74,70,.94594592,0,5,4,0,0,0,0,0,0,0,0,0,1,,,,,36,1
56,5,2,8,2,0,0,8,1,4,3,1,1,2,196,35,2,3,6,4,35,3,2,35,5,1,0,0,0,-99,1,0,0,0,246,41,3,14,1,1,32.391392,2,74,70,.94594592,0,5,4,0,0,0,0,0,0,0,0,0,1,,,,,36,1
56,6,1,8,2,0,0,8,1,4,3,1,1,4,196,35,2,3,3,1,35,5,1,35,4,4,180,123.333333333333,0,-99,1,170,0,0,416,70,3,14,1,1,32.391392,2,74,70,.94594592,0,5,4,0,0,0,1,0,0,0,1,0,3,,,,,36,0
56,6,2,8,2,0,0,8,1,4,3,1,1,4,196,35,2,3,5,1,35,5,1,35,4,4,180,123.333333333333,0,-99,1,170,0,0,416,70,3,14,1,1,32.391392,2,74,70,.94594592,0,5,4,0,0,1,0,0,0,0,1,0,3,,,,,36,0
57,1,1,9,3,0,0,9,1,1,6,2,1,7,190,50,2,3,3,2,35,5,1,35,5,1,0,0,0,-99,6,0,0,0,285,48,3,15,4,4,36.78492,2,20,10,.5,30,6,1,0,0,0,0,1,0,0,0,1,2,30,30,7.5,,102.5,0
57,1,2,9,3,0,0,9,1,1,6,2,1,7,190,20,2,3,5,1,35,5,1,35,5,1,0,0,0,-99,6,0,0,0,285,48,3,15,4,4,36.78492,2,20,10,.5,30,6,1,0,0,0,0,0,1,0,0,1,2,30,30,7.5,,102.5,0
57,2,1,9,3,0,0,9,1,1,6,2,2,2,190,35,3,1,6,3,35,2,3,35,2,3,0,0,0,-99,3,0,0,0,285,48,3,15,4,4,36.78492,2,20,10,.5,0,6,1,0,0,1,0,0,0,0,1,0,3,,,,,102.5,1
