140603_1201,2,subjects,Period,Subject,Group,Profit,TotalProfit,Participate,InGroup,input_self[1],input_self[2],input_self[3],input_self[4],input_self[5],input_self[6],input_other[1],input_other[2],input_other[3],input_other[4],input_other[5],input_other[6],chosen_option[1],chosen_option[2],chosen_option[3],chosen_option[4],chosen_option[5],chosen_option[6],item_order[1],item_order[2],item_order[3],item_order[4],item_order[5],item_order[6],random_numbers[1],random_numbers[2],random_numbers[3],random_numbers[4],random_numbers[5],random_numbers[6],all_unique,item_rank,svoGroup,Role,raven1,raven2,raven3,raven4,raven5,Q1,Q2,Q3,Q4,Q5,GroupCorrect1,GroupCorrect2,GroupCorrect3,GroupCorrect4,GroupCorrect5,ravenfeedback1,ravenprofit,Pair,RoleTrust,TrustGame,TrustGameResponder,trustfeedback1,% Sent back,trustprofit,Trio,RoleDictator,Allocation,dictatorprofit,AllocationDummy,TimeOKColorOK,TimeChatGroup1raven1OK,TimeChatGroupraven2OK,TimeChatGroupraven3OK,TimeChatGroupraven4OK,TimeChatGroupraven5OK,checker1,checker2,checker3,counter,fakepropose,fakerespond,TimePracticeTrustOK,TimeAEPracticeTrustOK,TimeTrustGameProposeOK,TimeAETrustGameResponseOK,Other1,Other2,Other1Team,Other2Team,Other1Num,Other2Num,TimeDictatorAllocateOK,random_dict,Dictator_roundpay,Dictator_team,Dictator_num,random_round,DictatorProfit,SelectedTeam,SelectedNum,TimeAECalculateDictatorOK,item_num,self[1],self[2],self[3],self[4],self[5],self[6],self[7],self[8],self[9],other[1],other[2],other[3],other[4],other[5],other[6],other[7],other[8],other[9],option,LeaveStage,TimeSVOItemsOK,TimeKillSVOItemsOK,mean_to_self,mean_to_other,k,svo_angle,svo_type,avg_dist_to_equality,avg_dist_to_altruist,avg_dist_to_joint,avg_dist_to_indiv,j,not_altru_indiv,inequality_aversion_score,payed_slider,svoProfit,kept_of_sender,received_from_sender,TimeSummaryOK,q1,q2,q3,q4,q5,TimeOKCollectivismOK,totalpayoff,ToPay,TimeFinalFeedbackOK,140603_1201,2,subjects,1,1,1,0,0,0,1,0,0,0,0,0,0,0,0,0,0,0,0,0,0,0,0,0,0,1,5,3,6,2,4,0.371014764,0.690627508,0.64154735,0.797595032,0.385614098,0.66884494,1,1,2,2,0,1,6,3,6,0,0,10,0,10,0,0,5,0,0,-1,25,1,1,200,10,-1,2%,10,1,1,35,0,35,25,0,6,59,55,5,0,1,1,4,150,150,99999,99999,26,0,2,3,2,4,3,1,4,1,30,1,1,3,0,0,0,0,1,170,170,170,170,170,170,170,170,170,170,153,135,118,100,83,65,48,30,9,0,0,0,0,0,7,45,2,-99,-99,-99,-99,16,0,-99,6,0,0,0,0,-1,-1,-1,-1,-1,0,35,7,0,140603_1201,2,subjects,1,2,1,0,0,0,2,0,0,0,0,0,0,0,0,0,0,0,0,0,0,0,0,0,0,5,1,3,6,2,4,0.489207512,0.268423646,0.29612229,0.585569634,0.275877474,0.362766408,1,1,2,1,1,1,6,2,5,10,0,10,10,0,0,0,5,0,0,-1,35,2,1,200,300,-1,50%,300,2,1,35,0,35,28,10,47,10,30,1,1,0,0,4,0,0,99999,99999,23,0,2,3,2,4,4,2,2,1,30,1,2,5,0,0,0,-,5,200,188,175,163,150,138,125,113,100,100,113,125,138,150,163,175,188,200,-,-,-,-,0,0,7,45,2,-99,-99,-99,-99,16,0,-99,6,0,0,0,-,-1,-1,-1,-1,-1,-,335,67,-,140603_1201,2,subjects,1,3,1,0,0,0,3,0,0,0,0,0,0,0,0,0,0,0,0,0,0,0,0,0,0,6,4,3,5,1,2,0.965115428,0.564423658,0.446928555,0.864290295,0.029032729,0.229622641,1,1,1,2,1,1,6,2,6,10,0,10,10,10,0,0,5,0,0,-1,45,3,1,200,250,-1,42%,250,3,1,35,0,35,24,61,20,38,40,55,1,0,0,4,200,0,99999,99999,22,0,2,3,3,6,1,1,-9,1,30,1,3,2,0,0,0,-,6,200,196,193,189,185,181,178,174,170,100,109,118,126,135,144,153,161,170,-,-,-,-,0,0,7,45,2,-99,-99,-99,-99,16,0,-99,6,0,0,0,-,-1,-1,-1,-1,-1,-,295,59,-,140603_1201,2,subjects,1,4,1,0,0,0,4,0,0,0,0,0,0,0,0,0,0,0,0,0,0,0,0,0,0,1,3,4,5,2,6,0.088518121,0.63207569,0.825229013,0.927325782,0.349509601,0.958824949,1,1,1,1,0,3,6,0,6,0,0,10,0,10,0,0,5,0,0,-1,25,4,1,200,300,-1,50%,300,4,1,35,0,35,26,0,3,50,0,2,0,1,1,4,50,1,99999,99999,18,0,2,3,3,6,2,2,7,1,30,1,4,3,0,0,0,-,1,170,170,170,170,170,170,170,170,170,170,153,135,118,100,83,65,48,30,-,-,-,-,0,0,7,45,2,-99,-99,-99,-99,16,0,-99,6,0,0,0,-,-1,-1,-1,-1,-1,-,325,65,-,140603_1201,2,subjects,1,5,2,0,0,0,1,0,0,0,0,0,0,0,0,0,0,0,0,0,0,0,0,0,0,6,4,2,5,1,3,0.970915392,0.502021182,0.208043409,0.542679317,0.207859178,0.263328344,1,1,4,2,1,0,6,3,8,10,0,10,0,0,0,0,5,0,0,-1,25,5,1,200,300,-1,50%,300,5,1,40,0,30,29,65,0,9,13,34,0,1,1,4,150,200,99999,99999,17,0,2,3,4,5,4,2,11,1,30,2,1,1,30,2,1,-,6,200,196,193,189,185,181,178,174,170,100,109,118,126,135,144,153,161,170,-,-,-,-,0,0,7,45,2,-99,-99,-99,-99,16,0,-99,5,0,0,0,-,-1,-1,-1,-1,-1,-,355,71,-,140603_1201,2,subjects,1,6,2,0,0,0,2,0,0,0,0,0,0,0,0,0,0,0,0,0,0,0,0,0,0,3,6,2,1,5,4,0.528229834,0.948430019,0.506144643,0.150628268,0.754539026,0.724057216,1,1,4,1,0,0,6,3,8,0,0,10,0,0,0,0,5,0,0,-1,15,6,1,20,5,-1,8%,185,6,1,35,0,35,22,0,0,26,3,22,0,1,1,4,70,20,99999,99999,3,0,2,3,4,5,3,1,14,1,30,2,2,1,30,2,2,-,3,100,109,118,126,135,144,153,161,170,200,196,193,189,185,181,178,174,170,-,-,-,-,0,0,7,45,2,-99,-99,-99,-99,16,0,-99,5,0,0,0,-,-1,-1,-1,-1,-1,-,230,46,-,140603_1201,2,subjects,1,7,2,0,0,0,3,0,0,0,0,0,0,0,0,0,0,0,0,0,0,0,0,0,0,5,3,2,6,1,4,0.415222321,0.267730978,0.21289645,0.470233408,0.005376496,0.290880351,1,1,3,2,1,3,6,3,8,10,0,10,0,0,0,0,5,0,0,-1,25,7,1,55,50,-1,30%,195,1,2,35,0,35,28,3,3,58,41,30,1,0,0,4,0,0,99999,99999,20,0,3,1,4,1,1,1,7,1,35,1,1,1,35,1,1,-,5,200,188,175,163,150,138,125,113,100,100,113,125,138,150,163,175,188,200,-,-,-,-,0,0,7,45,2,-99,-99,-99,-99,16,0,-99,5,0,0,0,-,-1,-1,-1,-1,-1,-,255,51,-,140603_1201,2,subjects,1,8,2,0,0,0,4,0,0,0,0,0,0,0,0,0,0,0,0,0,0,0,0,0,0,1,4,2,6,5,3,0.015020344,0.28500424,0.066263827,0.708665163,0.694997634,0.218020816,1,1,3,1,1,0,6,3,0,10,0,10,0,0,0,0,5,0,0,-1,25,8,1,100,0,-1,0%,100,2,2,20,0,50,27,56,0,57,5,0,1,0,0,4,0,0,99999,99999,19,0,3,1,4,1,2,2,-31,1,35,1,2,2,0,0,0,-,1,170,170,170,170,170,170,170,170,170,170,153,135,118,100,83,65,48,30,-,-,-,-,0,0,7,45,2,-99,-99,-99,-99,16,0,-99,5,0,0,0,-,-1,-1,-1,-1,-1,-,125,25,-,140603_1201,2,subjects,1,9,3,0,0,0,1,0,0,0,0,0,0,0,0,0,0,0,0,0,0,0,0,0,0,4,5,1,6,2,3,0.547731916,0.759473448,0.141807952,0.834898662,0.410107107,0.428449969,1,1,6,2,5,3,6,2,6,0,0,10,10,10,0,0,5,0,5,-1,40,9,1,200,300,-1,50%,300,3,2,35,0,35,24,25,0,53,0,29,0,1,1,4,50,1,99999,99999,24,0,3,1,6,1,1,3,8,1,35,1,3,3,0,0,0,-,4,100,109,118,126,135,144,153,161,170,200,179,158,136,115,94,73,51,30,-,-,-,-,0,0,7,45,2,-99,-99,-99,-99,16,0,-99,5,0,0,0,-,-1,-1,-1,-1,-1,-,340,68,-,140603_1201,2,subjects,1,10,3,0,0,0,2,0,0,0,0,0,0,0,0,0,0,0,0,0,0,0,0,0,0,4,2,5,1,6,3,0.625314584,0.535396567,0.70396024,0.275861825,0.958621273,0.609297882,1,1,6,1,5,0,6,3,6,0,0,10,0,10,0,0,5,0,5,-1,30,10,1,0,0,-1,0%,200,4,2,35,0,35,28,11,0,57,17,10,0,1,1,4,0,0,99999,99999,7,0,3,1,6,1,2,4,0,1,35,1,4,3,0,0,0,-,4,100,109,118,126,135,144,153,161,170,200,179,158,136,115,94,73,51,30,-,-,-,-,0,0,7,45,2,-99,-99,-99,-99,16,0,-99,5,0,0,0,-,-1,-1,-1,-1,-1,-,230,46,-,140603_1201,2,subjects,1,11,3,0,0,0,3,0,0,0,0,0,0,0,0,0,0,0,0,0,0,0,0,0,0,4,6,3,1,2,5,0.629516028,0.769982479,0.459749468,0.252484448,0.416187401,0.662210387,1,1,5,2,5,4,6,2,6,0,10,10,10,10,0,0,5,0,5,-1,50,11,1,150,150,-1,33%,200,7,1,45,0,25,28,1,5,75,20,70,0,1,1,4,133,66,99999,99999,16,0,2,3,5,6,3,3,-5,1,30,3,3,4,0,0,0,-,4,100,109,118,126,135,144,153,161,170,200,179,158,136,115,94,73,51,30,-,-,-,-,0,0,7,45,2,-99,-99,-99,-99,16,0,-99,5,0,0,0,-,-1,-1,-1,-1,-1,-,250,50,-,140603_1201,2,subjects,1,12,3,0,0,0,4,0,0,0,0,0,0,0,0,0,0,0,0,0,0,0,0,0,0,5,6,2,3,1,4,0.603677359,0.631466592,0.05901216,0.276906355,0.05366408,0.557772703,1,1,5,1,5,0,6,4,6,0,0,10,0,10,0,0,5,0,5,-1,30,12,1,100,150,-1,50%,250,8,1,35,0,35,25,25,0,63,50,49,0,1,1,4,80,70,99999,99999,26,0,2,3,5,6,4,4,8,1,30,3,4,3,0,0,0,-,5,200,188,175,163,150,138,125,113,100,100,113,125,138,150,163,175,188,200,-,-,-,-,0,0,7,45,2,-99,-99,-99,-99,16,0,-99,5,0,0,0,-,-1,-1,-1,-1,-1,-,280,56,-,140603_1201,2,subjects,1,13,4,0,0,0,1,0,0,0,0,0,0,0,0,0,0,0,0,0,0,0,0,0,0,2,3,1,5,4,6,0.09553137,0.396216341,0.001880388,0.696141405,0.595728934,0.910311833,1,1,8,2,1,0,6,1,6,10,0,10,0,10,5,0,5,0,5,-1,45,1,2,200,10,-1,,590,1,3,35,0,35,28,37,0,53,39,20,0,1,1,4,100,1,99999,99999,25,21,1,2,1,2,1,3,3,1,35,1,1,1,35,1,1,-,2,170,174,178,181,185,189,193,196,200,30,39,48,56,65,74,83,91,100,-,-,-,-,0,0,7,45,2,-99,-99,-99,-99,16,0,-99,4,0,0,0,-,-1,-1,-1,-1,-1,-,670,134,-,140603_1201,2,subjects,1,14,4,0,0,0,2,0,0,0,0,0,0,0,0,0,0,0,0,0,0,0,0,0,0,6,3,5,4,1,2,0.67014108,0.461469049,0.646043533,0.610969106,0.176210621,0.202436456,1,1,8,1,1,0,6,3,6,10,0,10,0,10,5,0,5,0,5,-1,45,2,2,200,300,-1,,300,2,3,50,0,20,27,41,0,57,77,26,0,1,1,4,200,300,99999,99999,25,24,1,2,1,2,2,4,-14,1,35,1,2,4,0,0,0,-,6,200,196,193,189,185,181,178,174,170,100,109,118,126,135,144,153,161,170,-,-,-,-,0,0,7,45,2,-99,-99,-99,-99,16,0,-99,4,0,0,0,-,-1,-1,-1,-1,-1,-,345,69,-,140603_1201,2,subjects,1,15,4,0,0,0,3,0,0,0,0,0,0,0,0,0,0,0,0,0,0,0,0,0,0,3,6,4,1,2,5,0.409692626,0.932198576,0.57190695,0.175001635,0.234798903,0.826067035,1,1,7,2,1,3,6,2,6,10,0,10,10,10,5,0,5,0,5,-1,55,3,2,200,250,-1,,350,6,2,35,0,35,28,27,1,60,2,20,1,0,0,4,0,0,99999,99999,23,11,3,1,5,2,1,2,8,1,35,2,2,1,35,2,2,-,3,100,109,118,126,135,144,153,161,170,200,196,193,189,185,181,178,174,170,-,-,-,-,0,0,7,45,2,-99,-99,-99,-99,16,0,-99,4,0,0,0,-,-1,-1,-1,-1,-1,-,440,88,-,140603_1201,2,subjects,1,16,4,0,0,0,4,0,0,0,0,0,0,0,0,0,0,0,0,0,0,0,0,0,0,3,5,4,6,2,1,0.418434302,0.520657809,0.46949693,0.730307908,0.36624195,0.061135607,1,1,7,1,1,6,6,0,6,10,0,10,0,10,5,0,5,0,5,-1,45,4,2,200,300,-1,,300,5,2,50,0,20,21,25,6,53,0,17,0,1,1,4,70,10,99999,99999,20,16,3,1,5,2,2,1,5,1,40,2,1,2,0,0,0,-,3,100,109,118,126,135,144,153,161,170,200,196,193,189,185,181,178,174,170,-,-,-,-,0,0,7,45,2,-99,-99,-99,-99,16,0,-99,4,0,0,0,-,-1,-1,-1,-1,-1,-,345,69,-,140603_1201,2,subjects,1,17,5,0,0,0,1,0,0,0,0,0,0,0,0,0,0,0,0,0,0,0,0,0,0,2,5,6,3,4,1,0.239582728,0.728653492,0.860072178,0.506115956,0.683681903,0.040102932,1,1,10,2,1,4,6,2,6,10,10,10,10,10,5,0,5,5,0,-1,65,5,2,200,300,-1,,300,6,3,35,0,35,28,61,42,68,46,63,0,1,1,4,111,333,99999,99999,26,9,1,2,2,4,2,3,-35,1,35,2,2,4,0,0,0,-,2,170,174,178,181,185,189,193,196,200,30,39,48,56,65,74,83,91,100,-,-,-,-,0,0,7,45,2,-99,-99,-99,-99,16,0,-99,5,0,0,0,-,-1,-1,-1,-1,-1,-,365,73,-,140603_1201,2,subjects,1,18,5,0,0,0,2,0,0,0,0,0,0,0,0,0,0,0,0,0,0,0,0,0,0,6,2,1,3,5,4,0.704991896,0.32088869,0.277388119,0.485823739,0.641748085,0.614626853,1,1,10,1,1,0,6,2,0,10,0,10,10,0,5,0,5,5,0,-1,45,6,2,20,5,-1,,55,5,3,35,0,35,23,15,0,3,15,0,0,1,1,6,30,10,99999,99999,26,19,1,2,2,4,1,4,10,1,30,2,1,3,0,0,0,-,6,200,196,193,189,185,181,178,174,170,100,109,118,126,135,144,153,161,170,-,-,-,-,0,0,7,45,2,-99,-99,-99,-99,16,0,-99,5,0,0,0,-,-1,-1,-1,-1,-1,-,100,20,-,140603_1201,2,subjects,1,19,5,0,0,0,3,0,0,0,0,0,0,0,0,0,0,0,0,0,0,0,0,0,0,1,2,3,5,6,4,0.033511918,0.183720842,0.396247317,0.713291373,0.796192996,0.624025815,1,1,9,2,1,4,6,2,6,10,10,10,10,10,5,0,5,5,0,-1,65,7,2,55,50,-1,,115,7,2,35,0,35,28,2,10,26,21,6,0,1,1,4,200,1,99999,99999,22,2,3,1,6,3,3,3,4,1,45,3,3,3,0,0,0,-,1,170,170,170,170,170,170,170,170,170,170,153,135,118,100,83,65,48,30,-,-,-,-,0,0,7,45,2,-99,-99,-99,-99,16,0,-99,5,0,0,0,-,-1,-1,-1,-1,-1,-,180,36,-,140603_1201,2,subjects,1,20,5,0,0,0,4,0,0,0,0,0,0,0,0,0,0,0,0,0,0,0,0,0,0,4,2,1,6,5,3,0.851755691,0.563571121,0.173939207,0.946893256,0.861642855,0.5656688,1,1,9,1,1,4,6,2,6,10,10,10,10,10,5,0,5,5,0,-1,65,8,2,100,0,-1,,300,8,2,35,0,35,28,23,9,57,20,5,0,1,0,4,4,4,99999,99999,16,17,3,1,6,3,4,4,19,1,35,3,4,2,0,0,0,-,4,100,109,118,126,135,144,153,161,170,200,179,158,136,115,94,73,51,30,-,-,-,-,0,0,7,45,2,-99,-99,-99,-99,16,0,-99,5,0,0,0,-,-1,-1,-1,-1,-1,-,365,73,-,140603_1201,2,subjects,1,21,6,0,0,0,1,0,0,0,0,0,0,0,0,0,0,0,0,0,0,0,0,0,0,1,3,6,4,2,5,0.195516762,0.265158604,0.827944211,0.479236918,0.258348401,0.552348283,1,1,12,2,0,6,6,2,6,0,0,10,10,10,0,0,5,0,5,-1,40,9,2,200,300,-1,,300,3,3,35,0,35,28,0,23,50,42,2,1,0,0,4,0,0,99999,99999,27,24,1,2,1,3,3,1,-5,1,35,1,3,5,0,0,0,-,1,170,170,170,170,170,170,170,170,170,170,153,135,118,100,83,65,48,30,-,-,-,-,0,0,7,45,2,-99,-99,-99,-99,16,0,-99,3,0,0,0,-,-1,-1,-1,-1,-1,-,340,68,-,140603_1201,2,subjects,1,22,6,0,0,0,2,0,0,0,0,0,0,0,0,0,0,0,0,0,0,0,0,0,0,3,5,1,2,6,4,0.666905711,0.829843739,0.317590886,0.615685604,0.972426112,0.773008177,1,1,12,1,1,4,6,3,6,10,10,10,0,10,0,0,5,0,5,-1,50,10,2,0,0,-1,,0,4,3,70,0,0,28,8,2,10,0,1,1,0,0,4,0,0,99999,99999,8,21,1,2,1,3,4,2,-22,1,35,1,4,2,0,0,0,-,3,100,109,118,126,135,144,153,161,170,200,196,193,189,185,181,178,174,170,-,-,-,-,0,0,7,45,2,-99,-99,-99,-99,16,0,-99,3,0,0,0,-,-1,-1,-1,-1,-1,-,50,10,-,140603_1201,2,subjects,1,23,6,0,0,0,3,0,0,0,0,0,0,0,0,0,0,0,0,0,0,0,0,0,0,6,5,3,2,4,1,0.817376453,0.694618618,0.171025862,0.050225904,0.457901285,0.009972906,1,1,11,2,1,6,6,0,6,10,0,10,0,10,0,0,5,0,5,-1,40,11,2,150,150,-1,,300,7,3,35,0,35,29,15,0,1,0,1,0,1,1,16,200,150,99999,99999,23,24,1,2,3,5,3,3,0,1,25,3,3,4,0,0,0,-,6,200,196,193,189,185,181,178,174,170,100,109,118,126,135,144,153,161,170,-,-,-,-,0,0,7,45,2,-99,-99,-99,-99,16,0,-99,3,0,0,0,-,-1,-1,-1,-1,-1,-,340,68,-,140603_1201,2,subjects,1,24,6,0,0,0,4,0,0,0,0,0,0,0,0,0,0,0,0,0,0,0,0,0,0,4,2,5,6,3,1,0.288113339,0.048599806,0.766792641,0.960451038,0.146772474,0.009306743,1,1,11,1,1,0,6,2,6,10,0,10,10,10,0,0,5,0,5,-1,50,12,2,100,150,-1,,150,8,3,20,0,50,26,8,0,14,2,10,1,0,0,4,0,0,99999,99999,26,8,1,2,3,5,4,4,1,1,35,3,4,4,0,0,0,-,4,100,109,118,126,135,144,153,161,170,200,179,158,136,115,94,73,51,30,-,-,-,-,0,0,7,45,2,-99,-99,-99,-99,16,0,-99,3,0,0,0,-,-1,-1,-1,-1,-1,-,200,40,-,140603_1201,2,subjects,2,1,1,0,0,0,1,0,0,0,0,0,0,0,0,0,0,0,0,0,0,0,0,0,0,2,1,5,4,6,3,0.259251411,0.147808535,0.746655508,0.375115343,0.754819971,0.327338789,1,1,2,2,0,1,6,3,6,0,0,10,0,10,0,0,5,0,0,-1,25,1,1,0,0,-1,,200,7,1,35,0,35,-,-,-,-,-,-,1,0,0,0,0,0,-,-,-,-,2,3,3,5,3,1,18,2,35,3,3,3,0,0,0,-,2,170,174,178,181,185,189,193,196,200,30,39,48,56,65,74,83,91,100,-,-,-,-,0,0,7,45,2,-99,-99,-99,-99,16,0,-99,3,0,0,0,-,-1,-1,-1,-1,-1,-,225,45,-,140603_1201,2,subjects,2,2,1,0,0,0,2,0,0,0,0,0,0,0,0,0,0,0,0,0,0,0,0,0,0,2,3,1,5,4,6,0.492303591,0.578663999,0.458768337,0.930522919,0.695791869,0.946257313,1,1,2,1,1,1,6,2,5,10,0,10,10,0,0,0,5,0,0,-1,35,2,1,0,0,-1,,200,8,1,35,0,35,-,-,-,-,-,-,1,0,0,0,0,0,-,-,-,-,2,3,3,5,4,2,21,2,20,3,4,1,30,1,2,-,2,170,174,178,181,185,189,193,196,200,30,39,48,56,65,74,83,91,100,-,-,-,-,0,0,7,45,2,-99,-99,-99,-99,16,0,-99,3,0,0,0,-,-1,-1,-1,-1,-1,-,265,53,-,140603_1201,2,subjects,2,3,1,0,0,0,3,0,0,0,0,0,0,0,0,0,0,0,0,0,0,0,0,0,0,6,4,3,2,5,1,0.924451892,0.409808178,0.282719209,0.254605094,0.661737678,0.218049314,1,1,1,2,1,1,6,2,6,10,0,10,10,10,0,0,5,0,0,-1,45,3,1,0,0,-1,,200,1,1,50,0,20,-,-,-,-,-,-,1,0,0,0,0,0,-,-,-,-,2,3,3,4,1,3,-5,2,35,3,1,2,35,3,1,-,6,200,196,193,189,185,181,178,174,170,100,109,118,126,135,144,153,161,170,-,-,-,-,0,0,7,45,2,-99,-99,-99,-99,16,0,-99,3,0,0,0,-,-1,-1,-1,-1,-1,-,280,56,-,140603_1201,2,subjects,2,4,1,0,0,0,4,0,0,0,0,0,0,0,0,0,0,0,0,0,0,0,0,0,0,3,2,4,5,6,1,0.298701893,0.216976701,0.338428092,0.659325215,0.750362255,0.155867158,1,1,1,1,0,3,6,0,6,0,0,10,0,10,0,0,5,0,0,-1,25,4,1,0,0,-1,,200,2,1,35,0,35,-,-,-,-,-,-,1,0,0,0,0,0,-,-,-,-,2,3,3,4,2,4,-1,2,35,3,2,1,30,1,4,-,3,100,109,118,126,135,144,153,161,170,200,196,193,189,185,181,178,174,170,-,-,-,-,0,0,7,45,2,-99,-99,-99,-99,16,0,-99,3,0,0,0,-,-1,-1,-1,-1,-1,-,255,51,-,140603_1201,2,subjects,2,5,2,0,0,0,1,0,0,0,0,0,0,0,0,0,0,0,0,0,0,0,0,0,0,6,3,4,2,1,5,0.825153295,0.559591635,0.603181461,0.410387164,0.07272071,0.816934493,1,1,4,2,1,0,6,3,8,10,0,10,0,0,0,0,5,0,0,-1,25,5,1,0,0,-1,,200,3,1,35,0,35,-,-,-,-,-,-,1,0,0,0,0,0,-,-,-,-,2,3,4,6,1,3,11,2,35,4,1,5,0,0,0,-,6,200,196,193,189,185,181,178,174,170,100,109,118,126,135,144,153,161,170,-,-,-,-,0,0,7,45,2,-99,-99,-99,-99,16,0,-99,3,0,0,0,-,-1,-1,-1,-1,-1,-,225,45,-,140603_1201,2,subjects,2,6,2,0,0,0,2,0,0,0,0,0,0,0,0,0,0,0,0,0,0,0,0,0,0,6,5,2,4,1,3,0.990394927,0.917591507,0.203193474,0.654236429,0.061572664,0.238467931,1,1,4,1,0,0,6,3,8,0,0,10,0,0,0,0,5,0,0,-1,15,6,1,0,0,-1,,200,4,1,40,0,30,-,-,-,-,-,-,1,0,0,0,0,0,-,-,-,-,2,3,4,6,2,4,6,2,35,4,2,5,0,0,0,-,6,200,196,193,189,185,181,178,174,170,100,109,118,126,135,144,153,161,170,-,-,-,-,0,0,7,45,2,-99,-99,-99,-99,16,0,-99,3,0,0,0,-,-1,-1,-1,-1,-1,-,215,43,-,140603_1201,2,subjects,2,7,2,0,0,0,3,0,0,0,0,0,0,0,0,0,0,0,0,0,0,0,0,0,0,1,3,5,6,2,4,0.039127867,0.459660181,0.804153615,0.889490765,0.261670107,0.727420144,1,1,3,2,1,3,6,3,8,10,0,10,0,0,0,0,5,0,0,-1,25,7,1,0,0,-1,,200,5,1,35,0,35,-,-,-,-,-,-,1,0,0,0,0,0,-,-,-,-,2,3,5,6,4,2,16,2,35,5,4,2,35,5,4,-,1,170,170,170,170,170,170,170,170,170,170,153,135,118,100,83,65,48,30,-,-,-,-,0,0,7,45,2,-99,-99,-99,-99,16,0,-99,3,0,0,0,-,-1,-1,-1,-1,-1,-,260,52,-,140603_1201,2,subjects,2,8,2,0,0,0,4,0,0,0,0,0,0,0,0,0,0,0,0,0,0,0,0,0,0,2,1,3,6,4,5,0.351426868,0.233099601,0.508663049,0.758391914,0.616753905,0.638409192,1,1,3,1,1,0,6,3,0,10,0,10,0,0,0,0,5,0,0,-1,25,8,1,0,0,-1,,200,6,1,20,0,50,-,-,-,-,-,-,1,0,0,0,0,0,-,-,-,-,2,3,5,6,3,1,6,2,35,5,3,3,0,0,0,-,2,170,174,178,181,185,189,193,196,200,30,39,48,56,65,74,83,91,100,-,-,-,-,0,0,7,45,2,-99,-99,-99,-99,16,0,-99,3,0,0,0,-,-1,-1,-1,-1,-1,-,225,45,-,140603_1201,2,subjects,2,9,3,0,0,0,1,0,0,0,0,0,0,0,0,0,0,0,0,0,0,0,0,0,0,5,3,4,1,6,2,0.691762936,0.646050292,0.688649256,0.128047324,0.782887511,0.168615121,1,1,6,2,5,3,6,2,6,0,0,10,10,10,0,0,5,0,5,-1,40,9,1,0,0,-1,,200,1,2,35,0,35,-,-,-,-,-,-,1,0,0,0,0,0,-,-,-,-,3,1,4,1,3,3,4,2,30,3,1,1,35,1,3,-,5,200,188,175,163,150,138,125,113,100,100,113,125,138,150,163,175,188,200,-,-,-,-,0,0,7,45,2,-99,-99,-99,-99,16,0,-99,6,0,0,0,-,-1,-1,-1,-1,-1,-,275,55,-,140603_1201,2,subjects,2,10,3,0,0,0,2,0,0,0,0,0,0,0,0,0,0,0,0,0,0,0,0,0,0,3,4,6,1,5,2,0.279145776,0.423226449,0.743282787,0.166926736,0.674065658,0.245946139,1,1,6,1,5,0,6,3,6,0,0,10,0,10,0,0,5,0,5,-1,30,10,1,0,0,-1,,200,2,2,35,0,35,-,-,-,-,-,-,1,0,0,0,0,0,-,-,-,-,3,1,4,1,4,4,2,2,30,3,2,5,0,0,0,-,3,100,109,118,126,135,144,153,161,170,200,196,193,189,185,181,178,174,170,-,-,-,-,0,0,7,45,2,-99,-99,-99,-99,16,0,-99,6,0,0,0,-,-1,-1,-1,-1,-1,-,230,46,-,140603_1201,2,subjects,2,11,3,0,0,0,3,0,0,0,0,0,0,0,0,0,0,0,0,0,0,0,0,0,0,3,2,5,4,1,6,0.210194931,0.026577721,0.47740594,0.27889424,0.021517455,0.644126985,1,1,5,2,5,4,6,2,6,0,10,10,10,10,0,0,5,0,5,-1,50,11,1,0,0,-1,,200,7,2,35,0,35,-,-,-,-,-,-,1,0,0,0,0,0,-,-,-,-,3,1,5,1,1,1,17,2,30,3,3,5,0,0,0,-,3,100,109,118,126,135,144,153,161,170,200,196,193,189,185,181,178,174,170,-,-,-,-,0,0,7,45,2,-99,-99,-99,-99,16,0,-99,6,0,0,0,-,-1,-1,-1,-1,-1,-,250,50,-,140603_1201,2,subjects,2,12,3,0,0,0,4,0,0,0,0,0,0,0,0,0,0,0,0,0,0,0,0,0,0,1,2,5,6,3,4,0.091371869,0.353799707,0.537645635,0.567539621,0.375486652,0.431377156,1,1,5,1,5,0,6,4,6,0,0,10,0,10,0,0,5,0,5,-1,30,12,1,0,0,-1,,200,8,2,50,0,20,-,-,-,-,-,-,1,0,0,0,0,0,-,-,-,-,3,1,5,1,2,2,10,2,30,3,4,4,0,0,0,-,1,170,170,170,170,170,170,170,170,170,170,153,135,118,100,83,65,48,30,-,-,-,-,0,0,7,45,2,-99,-99,-99,-99,16,0,-99,6,0,0,0,-,-1,-1,-1,-1,-1,-,230,46,-,140603_1201,2,subjects,2,13,4,0,0,0,1,0,0,0,0,0,0,0,0,0,0,0,0,0,0,0,0,0,0,2,4,5,1,3,6,0.643868239,0.877947105,0.914346595,0.074077859,0.656986547,0.958919271,1,1,8,2,1,0,6,1,6,10,0,10,0,10,5,0,5,0,5,-1,45,1,2,0,0,-1,,0,3,2,35,0,35,-,-,-,-,-,-,1,0,0,0,0,0,-,-,-,-,3,1,6,2,3,1,5,2,30,4,1,3,0,0,0,-,2,170,174,178,181,185,189,193,196,200,30,39,48,56,65,74,83,91,100,-,-,-,-,0,0,7,45,2,-99,-99,-99,-99,16,0,-99,6,0,0,0,-,-1,-1,-1,-1,-1,-,45,9,-,140603_1201,2,subjects,2,14,4,0,0,0,2,0,0,0,0,0,0,0,0,0,0,0,0,0,0,0,0,0,0,2,1,4,5,3,6,0.16726383,0.124826496,0.519444116,0.746213106,0.493492285,0.842237843,1,1,8,1,1,0,6,3,6,10,0,10,0,10,5,0,5,0,5,-1,45,2,2,0,0,-1,,0,4,2,35,0,35,-,-,-,-,-,-,1,0,0,0,0,0,-,-,-,-,3,1,6,2,4,2,6,2,30,4,2,5,0,0,0,-,2,170,174,178,181,185,189,193,196,200,30,39,48,56,65,74,83,91,100,-,-,-,-,0,0,7,45,2,-99,-99,-99,-99,16,0,-99,6,0,0,0,-,-1,-1,-1,-1,-1,-,45,9,-,140603_1201,2,subjects,2,15,4,0,0,0,3,0,0,0,0,0,0,0,0,0,0,0,0,0,0,0,0,0,0,2,6,1,4,3,5,0.311682625,0.960948071,0.291182576,0.544094017,0.324371271,0.751665731,1,1,7,2,1,3,6,2,6,10,0,10,10,10,5,0,5,0,5,-1,55,3,2,0,0,-1,,0,1,3,35,0,35,-,-,-,-,-,-,1,0,0,0,0,0,-,-,-,-,1,2,1,3,3,1,20,2,35,3,1,5,0,0,0,-,2,170,174,178,181,185,189,193,196,200,30,39,48,56,65,74,83,91,100,-,-,-,-,0,0,7,45,2,-99,-99,-99,-99,16,0,-99,6,0,0,0,-,-1,-1,-1,-1,-1,-,55,11,-,140603_1201,2,subjects,2,16,4,0,0,0,4,0,0,0,0,0,0,0,0,0,0,0,0,0,0,0,0,0,0,5,6,1,4,3,2,0.6036701,0.883363399,0.238276423,0.556193444,0.450730548,0.349626264,1,1,7,1,1,6,6,0,6,10,0,10,0,10,5,0,5,0,5,-1,45,4,2,0,0,-1,,0,2,3,40,0,30,-,-,-,-,-,-,1,0,0,0,0,0,-,-,-,-,1,2,1,3,4,2,8,2,35,3,2,5,0,0,0,-,5,200,188,175,163,150,138,125,113,100,100,113,125,138,150,163,175,188,200,-,-,-,-,0,0,7,45,2,-99,-99,-99,-99,16,0,-99,6,0,0,0,-,-1,-1,-1,-1,-1,-,45,9,-,140603_1201,2,subjects,2,17,5,0,0,0,1,0,0,0,0,0,0,0,0,0,0,0,0,0,0,0,0,0,0,6,3,1,2,4,5,0.972887747,0.449876485,0.221600626,0.440059385,0.577970978,0.707943643,1,1,10,2,1,4,6,2,6,10,10,10,10,10,5,0,5,5,0,-1,65,5,2,0,0,-1,,0,7,3,35,0,35,-,-,-,-,-,-,1,0,0,0,0,0,-,-,-,-,1,2,1,3,1,3,6,2,35,3,3,3,0,0,0,-,6,200,196,193,189,185,181,178,174,170,100,109,118,126,135,144,153,161,170,-,-,-,-,0,0,7,45,2,-99,-99,-99,-99,16,0,-99,6,0,0,0,-,-1,-1,-1,-1,-1,-,65,13,-,140603_1201,2,subjects,2,18,5,0,0,0,2,0,0,0,0,0,0,0,0,0,0,0,0,0,0,0,0,0,0,3,1,5,2,4,6,0.686998579,0.526702635,0.768423554,0.642282069,0.736850019,0.894678459,1,1,10,1,1,0,6,2,0,10,0,10,10,0,5,0,5,5,0,-1,45,6,2,0,0,-1,,0,8,3,30,0,40,-,-,-,-,-,-,1,0,0,0,0,0,-,-,-,-,1,2,1,3,2,4,12,2,50,3,4,2,50,3,4,-,3,100,109,118,126,135,144,153,161,170,200,196,193,189,185,181,178,174,170,-,-,-,-,0,0,7,45,2,-99,-99,-99,-99,16,0,-99,6,0,0,0,-,-1,-1,-1,-1,-1,-,95,19,-,140603_1201,2,subjects,2,19,5,0,0,0,3,0,0,0,0,0,0,0,0,0,0,0,0,0,0,0,0,0,0,2,6,4,1,5,3,0.245519132,0.958221802,0.588144204,0.117984776,0.758539205,0.377893949,1,1,9,2,1,4,6,2,6,10,10,10,10,10,5,0,5,5,0,-1,65,7,2,0,0,-1,,0,6,2,35,0,35,-,-,-,-,-,-,1,0,0,0,0,0,-,-,-,-,3,1,6,2,1,4,2,2,30,5,3,3,0,0,0,-,2,170,174,178,181,185,189,193,196,200,30,39,48,56,65,74,83,91,100,-,-,-,-,0,0,7,45,2,-99,-99,-99,-99,16,0,-99,6,0,0,0,-,-1,-1,-1,-1,-1,-,65,13,-,140603_1201,2,subjects,2,20,5,0,0,0,4,0,0,0,0,0,0,0,0,0,0,0,0,0,0,0,0,0,0,2,5,3,1,6,4,0.408805239,0.789655313,0.545348609,0.078075897,0.804874558,0.572806129,1,1,9,1,1,4,6,2,6,10,10,10,10,10,5,0,5,5,0,-1,65,8,2,0,0,-1,,0,5,2,35,0,35,-,-,-,-,-,-,1,0,0,0,0,0,-,-,-,-,3,1,6,2,2,3,14,2,30,5,4,3,0,0,0,-,2,170,174,178,181,185,189,193,196,200,30,39,48,56,65,74,83,91,100,-,-,-,-,0,0,7,45,2,-99,-99,-99,-99,16,0,-99,6,0,0,0,-,-1,-1,-1,-1,-1,-,65,13,-,140603_1201,2,subjects,2,21,6,0,0,0,1,0,0,0,0,0,0,0,0,0,0,0,0,0,0,0,0,0,0,3,6,5,1,2,4,0.489056369,0.860868039,0.804972516,0.33483644,0.428312149,0.643456465,1,1,12,2,0,6,6,2,6,0,0,10,10,10,0,0,5,0,5,-1,40,9,2,0,0,-1,,0,6,3,35,0,35,-,-,-,-,-,-,1,0,0,0,0,0,-,-,-,-,1,2,2,5,4,3,8,2,35,5,3,5,0,0,0,-,3,100,109,118,126,135,144,153,161,170,200,196,193,189,185,181,178,174,170,-,-,-,-,0,0,7,45,2,-99,-99,-99,-99,16,0,-99,3,0,0,0,-,-1,-1,-1,-1,-1,-,40,8,-,140603_1201,2,subjects,2,22,6,0,0,0,2,0,0,0,0,0,0,0,0,0,0,0,0,0,0,0,0,0,0,1,4,6,2,3,5,0.263602582,0.491421611,0.852759154,0.323100929,0.45585252,0.833826262,1,1,12,1,1,4,6,3,6,10,10,10,0,10,0,0,5,0,5,-1,50,10,2,0,0,-1,,0,5,3,35,0,35,-,-,-,-,-,-,1,0,0,0,0,0,-,-,-,-,1,2,2,5,3,4,1,2,35,5,4,2,35,5,4,-,1,170,170,170,170,170,170,170,170,170,170,153,135,118,100,83,65,48,30,-,-,-,-,0,0,7,45,2,-99,-99,-99,-99,16,0,-99,3,0,0,0,-,-1,-1,-1,-1,-1,-,85,17,-,140603_1201,2,subjects,2,23,6,0,0,0,3,0,0,0,0,0,0,0,0,0,0,0,0,0,0,0,0,0,0,4,5,1,2,3,6,0.609123823,0.834726335,0.101796964,0.570386828,0.596052404,0.901570002,1,1,11,2,1,6,6,0,6,10,0,10,0,10,0,0,5,0,5,-1,40,11,2,0,0,-1,,0,3,3,40,0,30,-,-,-,-,-,-,1,0,0,0,0,0,-,-,-,-,1,2,2,4,1,1,1,2,35,4,1,1,25,3,3,-,4,100,109,118,126,135,144,153,161,170,200,179,158,136,115,94,73,51,30,-,-,-,-,0,0,7,45,2,-99,-99,-99,-99,16,0,-99,3,0,0,0,-,-1,-1,-1,-1,-1,-,65,13,-,140603_1201,2,subjects,2,24,6,0,0,0,4,0,0,0,0,0,0,0,0,0,0,0,0,0,0,0,0,0,0,2,4,6,5,1,3,0.099040046,0.68476612,0.840042373,0.687016408,0.002818414,0.323012908,1,1,11,1,1,0,6,2,6,10,0,10,10,10,0,0,5,0,5,-1,50,12,2,0,0,-1,,0,4,3,35,0,35,-,-,-,-,-,-,1,0,0,0,0,0,-,-,-,-,1,2,2,4,2,2,2,2,35,4,2,4,0,0,0,-,2,170,174,178,181,185,189,193,196,200,30,39,48,56,65,74,83,91,100,-,-,-,-,0,0,7,45,2,-99,-99,-99,-99,16,0,-99,3,0,0,0,-,-1,-1,-1,-1,-1,-,50,10,-,140603_1201,2,subjects,3,1,1,0,0,0,1,0,0,0,0,0,0,0,0,0,0,0,0,0,0,0,0,0,0,5,2,4,1,6,3,0.575738854,0.258636247,0.541914316,0.256291581,0.927986197,0.325417951,1,1,2,2,0,1,6,3,6,0,0,10,0,10,0,0,5,0,0,-1,25,1,1,0,0,-1,,200,3,1,40,0,30,-,-,-,-,-,-,1,0,0,0,0,0,-,-,-,-,2,3,2,4,3,3,17,2,35,2,3,2,35,3,3,-,5,200,188,175,163,150,138,125,113,100,100,113,125,138,150,163,175,188,200,-,-,-,-,0,0,7,45,2,-99,-99,-99,-99,16,0,-99,4,0,0,0,-,-1,-1,-1,-1,-1,-,260,52,-,140603_1201,2,subjects,3,2,1,0,0,0,2,0,0,0,0,0,0,0,0,0,0,0,0,0,0,0,0,0,0,2,6,3,5,1,4,0.464816545,0.876600819,0.52206676,0.872998257,0.029959069,0.596291819,1,1,2,1,1,1,6,2,5,10,0,10,10,0,0,0,5,0,0,-1,35,2,1,0,0,-1,,200,4,1,35,0,35,-,-,-,-,-,-,1,0,0,0,0,0,-,-,-,-,2,3,2,4,4,4,26,2,0,2,4,3,0,2,4,-,2,170,174,178,181,185,189,193,196,200,30,39,48,56,65,74,83,91,100,-,-,-,-,0,0,7,45,2,-99,-99,-99,-99,16,0,-99,4,0,0,0,-,-1,-1,-1,-1,-1,-,235,47,-,140603_1201,2,subjects,3,3,1,0,0,0,3,0,0,0,0,0,0,0,0,0,0,0,0,0,0,0,0,0,0,3,2,6,4,1,5,0.290641862,0.233860872,0.566059515,0.376029511,0.019980784,0.557350886,1,1,1,2,1,1,6,2,6,10,0,10,10,10,0,0,5,0,0,-1,45,3,1,0,0,-1,,200,7,1,35,0,35,-,-,-,-,-,-,1,0,0,0,0,0,-,-,-,-,2,3,4,6,1,3,18,2,35,4,1,1,30,1,3,-,3,100,109,118,126,135,144,153,161,170,200,196,193,189,185,181,178,174,170,-,-,-,-,0,0,7,45,2,-99,-99,-99,-99,16,0,-99,4,0,0,0,-,-1,-1,-1,-1,-1,-,275,55,-,140603_1201,2,subjects,3,4,1,0,0,0,4,0,0,0,0,0,0,0,0,0,0,0,0,0,0,0,0,0,0,6,3,1,5,4,2,0.664007507,0.331198726,0.12599107,0.60805764,0.396346277,0.175117747,1,1,1,1,0,3,6,0,6,0,0,10,0,10,0,0,5,0,0,-1,25,4,1,0,0,-1,,200,8,1,35,0,35,-,-,-,-,-,-,1,0,0,0,0,0,-,-,-,-,2,3,4,6,2,4,5,2,35,4,2,2,35,3,2,-,6,200,196,193,189,185,181,178,174,170,100,109,118,126,135,144,153,161,170,-,-,-,-,0,0,7,45,2,-99,-99,-99,-99,16,0,-99,4,0,0,0,-,-1,-1,-1,-1,-1,-,260,52,-,140603_1201,2,subjects,3,5,2,0,0,0,1,0,0,0,0,0,0,0,0,0,0,0,0,0,0,0,0,0,0,4,6,1,3,2,5,0.66439535,0.966759039,0.49967341,0.624760697,0.570589104,0.755528953,1,1,4,2,1,0,6,3,8,10,0,10,0,0,0,0,5,0,0,-1,25,5,1,0,0,-1,,200,1,1,35,0,35,-,-,-,-,-,-,1,0,0,0,0,0,-,-,-,-,2,3,3,5,3,1,16,2,35,3,3,2,35,4,1,-,4,100,109,118,126,135,144,153,161,170,200,179,158,136,115,94,73,51,30,-,-,-,-,0,0,7,45,2,-99,-99,-99,-99,16,0,-99,6,0,0,0,-,-1,-1,-1,-1,-1,-,260,52,-,140603_1201,2,subjects,3,6,2,0,0,0,2,0,0,0,0,0,0,0,0,0,0,0,0,0,0,0,0,0,0,6,5,4,2,3,1,0.975978125,0.70981049,0.522177299,0.31591561,0.319161884,0.136633259,1,1,4,1,0,0,6,3,8,0,0,10,0,0,0,0,5,0,0,-1,15,6,1,0,0,-1,,200,2,1,35,0,35,-,-,-,-,-,-,1,0,0,0,0,0,-,-,-,-,2,3,3,5,4,2,15,2,10,3,4,1,30,2,2,-,6,200,196,193,189,185,181,178,174,170,100,109,118,126,135,144,153,161,170,-,-,-,-,0,0,7,45,2,-99,-99,-99,-99,16,0,-99,6,0,0,0,-,-1,-1,-1,-1,-1,-,245,49,-,140603_1201,2,subjects,3,7,2,0,0,0,3,0,0,0,0,0,0,0,0,0,0,0,0,0,0,0,0,0,0,1,5,6,4,2,3,0.153779413,0.81313944,0.921751078,0.776707681,0.246089249,0.363821951,1,1,3,2,1,3,6,3,8,10,0,10,0,0,0,0,5,0,0,-1,25,7,1,0,0,-1,,200,3,2,35,0,35,-,-,-,-,-,-,1,0,0,0,0,0,-,-,-,-,3,1,4,1,3,1,19,2,30,2,3,1,35,1,1,-,1,170,170,170,170,170,170,170,170,170,170,153,135,118,100,83,65,48,30,-,-,-,-,0,0,7,45,2,-99,-99,-99,-99,16,0,-99,6,0,0,0,-,-1,-1,-1,-1,-1,-,260,52,-,140603_1201,2,subjects,3,8,2,0,0,0,4,0,0,0,0,0,0,0,0,0,0,0,0,0,0,0,0,0,0,5,3,4,1,6,2,0.801130261,0.437884344,0.531917458,0.190513879,0.943216762,0.310361696,1,1,3,1,1,0,6,3,0,10,0,10,0,0,0,0,5,0,0,-1,25,8,1,0,0,-1,,200,4,2,70,0,0,-,-,-,-,-,-,1,0,0,0,0,0,-,-,-,-,3,1,4,1,4,2,21,2,30,2,4,2,35,5,3,-,5,200,188,175,163,150,138,125,113,100,100,113,125,138,150,163,175,188,200,-,-,-,-,0,0,7,45,2,-99,-99,-99,-99,16,0,-99,6,0,0,0,-,-1,-1,-1,-1,-1,-,260,52,-,140603_1201,2,subjects,3,9,3,0,0,0,1,0,0,0,0,0,0,0,0,0,0,0,0,0,0,0,0,0,0,1,5,6,3,4,2,0.391882181,0.891070956,0.936711841,0.576393033,0.81045077,0.546584856,1,1,6,2,5,3,6,2,6,0,0,10,10,10,0,0,5,0,5,-1,40,9,1,0,0,-1,,200,5,1,35,0,35,-,-,-,-,-,-,1,0,0,0,0,0,-,-,-,-,2,3,5,6,4,2,28,2,35,5,4,1,35,1,3,-,1,170,170,170,170,170,170,170,170,170,170,153,135,118,100,83,65,48,30,-,-,-,-,0,0,7,45,2,-99,-99,-99,-99,16,0,-99,3,0,0,0,-,-1,-1,-1,-1,-1,-,275,55,-,140603_1201,2,subjects,3,10,3,0,0,0,2,0,0,0,0,0,0,0,0,0,0,0,0,0,0,0,0,0,0,1,5,3,4,2,6,0.303773484,0.774820309,0.437708666,0.451675122,0.422029172,0.916217826,1,1,6,1,5,0,6,3,6,0,0,10,0,10,0,0,5,0,5,-1,30,10,1,0,0,-1,,200,6,1,35,0,35,-,-,-,-,-,-,1,0,0,0,0,0,-,-,-,-,2,3,5,6,3,1,20,2,35,5,3,2,30,3,2,-,1,170,170,170,170,170,170,170,170,170,170,153,135,118,100,83,65,48,30,-,-,-,-,0,0,7,45,2,-99,-99,-99,-99,16,0,-99,3,0,0,0,-,-1,-1,-1,-1,-1,-,260,52,-,140603_1201,2,subjects,3,11,3,0,0,0,3,0,0,0,0,0,0,0,0,0,0,0,0,0,0,0,0,0,0,3,5,1,2,4,6,0.24971783,0.569546447,0.007566546,0.20397397,0.520943379,0.90724916,1,1,5,2,5,4,6,2,6,0,10,10,10,10,0,0,5,0,5,-1,50,11,1,0,0,-1,,200,1,2,35,0,35,-,-,-,-,-,-,1,0,0,0,0,0,-,-,-,-,3,1,5,2,1,1,24,2,30,3,3,5,0,0,0,-,3,100,109,118,126,135,144,153,161,170,200,196,193,189,185,181,178,174,170,-,-,-,-,0,0,7,45,2,-99,-99,-99,-99,16,0,-99,3,0,0,0,-,-1,-1,-1,-1,-1,-,250,50,-,140603_1201,2,subjects,3,12,3,0,0,0,4,0,0,0,0,0,0,0,0,0,0,0,0,0,0,0,0,0,0,1,2,5,6,3,4,0.186928971,0.229562762,0.715220504,0.896704186,0.591256602,0.711008074,1,1,5,1,5,0,6,4,6,0,0,10,0,10,0,0,5,0,5,-1,30,12,1,0,0,-1,,200,2,2,60,0,10,-,-,-,-,-,-,1,0,0,0,0,0,-,-,-,-,3,1,5,2,2,2,11,2,30,3,4,1,30,3,4,-,1,170,170,170,170,170,170,170,170,170,170,153,135,118,100,83,65,48,30,-,-,-,-,0,0,7,45,2,-99,-99,-99,-99,16,0,-99,3,0,0,0,-,-1,-1,-1,-1,-1,-,260,52,-,140603_1201,2,subjects,3,13,4,0,0,0,1,0,0,0,0,0,0,0,0,0,0,0,0,0,0,0,0,0,0,5,1,6,3,4,2,0.489800784,0.249026118,0.921609437,0.364840368,0.367141464,0.30723671,1,1,8,2,1,0,6,1,6,10,0,10,0,10,5,0,5,0,5,-1,45,1,2,0,0,-1,,0,7,2,35,0,35,-,-,-,-,-,-,1,0,0,0,0,0,-,-,-,-,3,1,6,1,3,3,21,2,30,4,1,5,0,0,0,-,5,200,188,175,163,150,138,125,113,100,100,113,125,138,150,163,175,188,200,-,-,-,-,0,0,7,45,2,-99,-99,-99,-99,16,0,-99,5,0,0,0,-,-1,-1,-1,-1,-1,-,45,9,-,140603_1201,2,subjects,3,14,4,0,0,0,2,0,0,0,0,0,0,0,0,0,0,0,0,0,0,0,0,0,0,6,5,1,3,4,2,0.815322727,0.768523615,0.129078481,0.434567057,0.52134152,0.330836249,1,1,8,1,1,0,6,3,6,10,0,10,0,10,5,0,5,0,5,-1,45,2,2,0,0,-1,,0,8,2,35,0,35,-,-,-,-,-,-,1,0,0,0,0,0,-,-,-,-,3,1,6,1,4,4,17,2,30,4,2,2,30,4,2,-,6,200,196,193,189,185,181,178,174,170,100,109,118,126,135,144,153,161,170,-,-,-,-,0,0,7,45,2,-99,-99,-99,-99,16,0,-99,5,0,0,0,-,-1,-1,-1,-1,-1,-,75,15,-,140603_1201,2,subjects,3,15,4,0,0,0,3,0,0,0,0,0,0,0,0,0,0,0,0,0,0,0,0,0,0,3,4,1,5,2,6,0.395181361,0.404925998,0.354997892,0.727381189,0.368602311,0.833329691,1,1,7,2,1,3,6,2,6,10,0,10,10,10,5,0,5,0,5,-1,55,3,2,0,0,-1,,0,3,3,35,0,35,-,-,-,-,-,-,1,0,0,0,0,0,-,-,-,-,1,2,1,2,1,3,22,2,35,2,3,5,0,0,0,-,3,100,109,118,126,135,144,153,161,170,200,196,193,189,185,181,178,174,170,-,-,-,-,0,0,7,45,2,-99,-99,-99,-99,16,0,-99,5,0,0,0,-,-1,-1,-1,-1,-1,-,55,11,-,140603_1201,2,subjects,3,16,4,0,0,0,4,0,0,0,0,0,0,0,0,0,0,0,0,0,0,0,0,0,0,2,5,4,3,1,6,0.544760976,0.860285317,0.593654867,0.561832762,0.18177645,0.872072447,1,1,7,1,1,6,6,0,6,10,0,10,0,10,5,0,5,0,5,-1,45,4,2,0,0,-1,,0,4,3,35,0,35,-,-,-,-,-,-,1,0,0,0,0,0,-,-,-,-,1,2,1,2,2,4,23,2,70,2,4,2,35,3,2,-,2,170,174,178,181,185,189,193,196,200,30,39,48,56,65,74,83,91,100,-,-,-,-,0,0,7,45,2,-99,-99,-99,-99,16,0,-99,5,0,0,0,-,-1,-1,-1,-1,-1,-,80,16,-,140603_1201,2,subjects,3,17,5,0,0,0,1,0,0,0,0,0,0,0,0,0,0,0,0,0,0,0,0,0,0,3,4,5,1,2,6,0.116796835,0.235854276,0.466645208,0.044298289,0.099860155,0.821283434,1,1,10,2,1,4,6,2,6,10,10,10,10,10,5,0,5,5,0,-1,65,5,2,0,0,-1,,0,1,3,70,0,0,-,-,-,-,-,-,1,0,0,0,0,0,-,-,-,-,1,2,2,3,1,3,18,2,35,3,3,1,35,2,2,-,3,100,109,118,126,135,144,153,161,170,200,196,193,189,185,181,178,174,170,-,-,-,-,0,0,7,45,2,-99,-99,-99,-99,16,0,-99,4,0,0,0,-,-1,-1,-1,-1,-1,-,100,20,-,140603_1201,2,subjects,3,18,5,0,0,0,2,0,0,0,0,0,0,0,0,0,0,0,0,0,0,0,0,0,0,6,4,1,3,2,5,0.947770677,0.495375428,0.376002061,0.449564665,0.378373746,0.619403821,1,1,10,1,1,0,6,2,0,10,0,10,10,0,5,0,5,5,0,-1,45,6,2,0,0,-1,,0,2,3,40,0,30,-,-,-,-,-,-,1,0,0,0,0,0,-,-,-,-,1,2,2,3,2,4,3,2,60,3,4,5,0,0,0,-,6,200,196,193,189,185,181,178,174,170,100,109,118,126,135,144,153,161,170,-,-,-,-,0,0,7,45,2,-99,-99,-99,-99,16,0,-99,4,0,0,0,-,-1,-1,-1,-1,-1,-,45,9,-,140603_1201,2,subjects,3,19,5,0,0,0,3,0,0,0,0,0,0,0,0,0,0,0,0,0,0,0,0,0,0,3,4,2,5,6,1,0.381972419,0.504491836,0.215213862,0.770472472,0.797719846,0.170932367,1,1,9,2,1,4,6,2,6,10,10,10,10,10,5,0,5,5,0,-1,65,7,2,0,0,-1,,0,6,2,35,0,35,-,-,-,-,-,-,1,0,0,0,0,0,-,-,-,-,3,1,6,3,1,2,23,2,30,5,3,4,0,0,0,-,3,100,109,118,126,135,144,153,161,170,200,196,193,189,185,181,178,174,170,-,-,-,-,0,0,7,45,2,-99,-99,-99,-99,16,0,-99,4,0,0,0,-,-1,-1,-1,-1,-1,-,65,13,-,140603_1201,2,subjects,3,20,5,0,0,0,4,0,0,0,0,0,0,0,0,0,0,0,0,0,0,0,0,0,0,3,4,6,5,1,2,0.699995442,0.723232939,0.772116777,0.75694359,0.237368687,0.310666887,1,1,9,1,1,4,6,2,6,10,10,10,10,10,5,0,5,5,0,-1,65,8,2,0,0,-1,,0,5,2,35,0,35,-,-,-,-,-,-,1,0,0,0,0,0,-,-,-,-,3,1,6,3,2,1,26,2,30,5,4,4,0,0,0,-,3,100,109,118,126,135,144,153,161,170,200,196,193,189,185,181,178,174,170,-,-,-,-,0,0,7,45,2,-99,-99,-99,-99,16,0,-99,4,0,0,0,-,-1,-1,-1,-1,-1,-,65,13,-,140603_1201,2,subjects,3,21,6,0,0,0,1,0,0,0,0,0,0,0,0,0,0,0,0,0,0,0,0,0,0,2,3,6,1,5,4,0.095647335,0.249380139,0.880633254,0.08178508,0.865394856,0.82339628,1,1,12,2,0,6,6,2,6,0,0,10,10,10,0,0,5,0,5,-1,40,9,2,0,0,-1,,0,6,3,35,0,35,-,-,-,-,-,-,1,0,0,0,0,0,-,-,-,-,1,2,3,5,2,3,26,2,35,5,3,5,0,0,0,-,2,170,174,178,181,185,189,193,196,200,30,39,48,56,65,74,83,91,100,-,-,-,-,0,0,7,45,2,-99,-99,-99,-99,16,0,-99,4,0,0,0,-,-1,-1,-1,-1,-1,-,40,8,-,140603_1201,2,subjects,3,22,6,0,0,0,2,0,0,0,0,0,0,0,0,0,0,0,0,0,0,0,0,0,0,3,2,4,1,6,5,0.332000954,0.099384483,0.573817864,0.004404406,0.912701284,0.906009831,1,1,12,1,1,4,6,3,6,10,10,10,0,10,0,0,5,0,5,-1,50,10,2,0,0,-1,,0,5,3,35,0,35,-,-,-,-,-,-,1,0,0,0,0,0,-,-,-,-,1,2,3,5,1,4,4,2,35,5,4,2,35,5,4,-,3,100,109,118,126,135,144,153,161,170,200,196,193,189,185,181,178,174,170,-,-,-,-,0,0,7,45,2,-99,-99,-99,-99,16,0,-99,4,0,0,0,-,-1,-1,-1,-1,-1,-,85,17,-,140603_1201,2,subjects,3,23,6,0,0,0,3,0,0,0,0,0,0,0,0,0,0,0,0,0,0,0,0,0,0,2,4,1,3,5,6,0.106588915,0.536343314,0.02485274,0.304121867,0.803092391,0.950923184,1,1,11,2,1,6,6,0,6,10,0,10,0,10,0,0,5,0,5,-1,40,11,2,0,0,-1,,0,7,3,35,0,35,-,-,-,-,-,-,1,0,0,0,0,0,-,-,-,-,1,2,1,4,3,1,10,2,35,4,1,2,35,4,1,-,2,170,174,178,181,185,189,193,196,200,30,39,48,56,65,74,83,91,100,-,-,-,-,0,0,7,45,2,-99,-99,-99,-99,16,0,-99,4,0,0,0,-,-1,-1,-1,-1,-1,-,75,15,-,140603_1201,2,subjects,3,24,6,0,0,0,4,0,0,0,0,0,0,0,0,0,0,0,0,0,0,0,0,0,0,6,4,3,2,5,1,0.940037765,0.772263249,0.455517382,0.320015737,0.881807363,0.096961374,1,1,11,1,1,0,6,2,6,10,0,10,10,10,0,0,5,0,5,-1,50,12,2,0,0,-1,,0,8,3,0,0,70,-,-,-,-,-,-,1,0,0,0,0,0,-,-,-,-,1,2,1,4,4,2,13,2,35,4,2,1,35,3,4,-,6,200,196,193,189,185,181,178,174,170,100,109,118,126,135,144,153,161,170,-,-,-,-,0,0,7,45,2,-99,-99,-99,-99,16,0,-99,4,0,0,0,-,-1,-1,-1,-1,-1,-,85,17,-,140603_1201,2,subjects,4,1,1,0,0,0,1,0,0,0,0,0,0,0,0,0,0,0,0,0,0,0,0,0,0,5,4,2,3,1,6,0.882309929,0.729026898,0.539900412,0.639365567,0.348802628,0.966677442,1,1,2,2,0,1,6,3,6,0,0,10,0,10,0,0,5,0,0,-1,25,1,1,0,0,-1,,200,1,1,20,0,50,-,-,-,-,-,-,1,0,0,0,0,0,-,-,-,-,2,3,4,6,2,2,22,3,35,6,2,3,35,2,3,-,5,200,188,175,163,150,138,125,113,100,100,113,125,138,150,163,175,188,200,-,-,-,-,0,0,7,45,2,-99,-99,-99,-99,16,0,-99,6,0,0,0,-,-1,-1,-1,-1,-1,-,260,52,-,140603_1201,2,subjects,4,2,1,0,0,0,2,0,0,0,0,0,0,0,0,0,0,0,0,0,0,0,0,0,0,5,1,2,3,6,4,0.428422761,0.108420016,0.111849381,0.299877015,0.988526707,0.344029979,1,1,2,1,1,1,6,2,5,10,0,10,10,0,0,0,5,0,0,-1,35,2,1,0,0,-1,,200,2,1,35,0,35,-,-,-,-,-,-,1,0,0,0,0,0,-,-,-,-,2,3,4,6,1,1,26,3,35,6,1,2,20,3,4,-,5,200,188,175,163,150,138,125,113,100,100,113,125,138,150,163,175,188,200,-,-,-,-,0,0,7,45,2,-99,-99,-99,-99,16,0,-99,6,0,0,0,-,-1,-1,-1,-1,-1,-,255,51,-,140603_1201,2,subjects,4,3,1,0,0,0,3,0,0,0,0,0,0,0,0,0,0,0,0,0,0,0,0,0,0,4,1,3,6,2,5,0.494029051,0.214709312,0.325763626,0.797853771,0.251426729,0.755069379,1,1,1,2,1,1,6,2,6,10,0,10,10,10,0,0,5,0,0,-1,45,3,1,0,0,-1,,200,3,2,35,0,35,-,-,-,-,-,-,1,0,0,0,0,0,-,-,-,-,3,1,5,2,3,3,16,3,40,5,3,5,0,0,0,-,4,100,109,118,126,135,144,153,161,170,200,179,158,136,115,94,73,51,30,-,-,-,-,0,0,7,45,2,-99,-99,-99,-99,16,0,-99,6,0,0,0,-,-1,-1,-1,-1,-1,-,245,49,-,140603_1201,2,subjects,4,4,1,0,0,0,4,0,0,0,0,0,0,0,0,0,0,0,0,0,0,0,0,0,0,4,2,1,5,6,3,0.385485257,0.105605056,0.032984659,0.736240169,0.95904221,0.146266689,1,1,1,1,0,3,6,0,6,0,0,10,0,10,0,0,5,0,0,-1,25,4,1,0,0,-1,,200,4,2,35,0,35,-,-,-,-,-,-,1,0,0,0,0,0,-,-,-,-,3,1,5,2,4,4,10,3,35,5,4,4,35,5,4,-,4,100,109,118,126,135,144,153,161,170,200,179,158,136,115,94,73,51,30,-,-,-,-,0,0,7,45,2,-99,-99,-99,-99,16,0,-99,6,0,0,0,-,-1,-1,-1,-1,-1,-,260,52,-,140603_1201,2,subjects,4,5,2,0,0,0,1,0,0,0,0,0,0,0,0,0,0,0,0,0,0,0,0,0,0,4,2,3,5,6,1,0.408076391,0.304236323,0.373157518,0.726442817,0.791003492,0.050606153,1,1,4,2,1,0,6,3,8,10,0,10,0,0,0,0,5,0,0,-1,25,5,1,0,0,-1,,200,5,2,40,0,30,-,-,-,-,-,-,1,0,0,0,0,0,-,-,-,-,3,1,5,3,1,1,15,3,70,5,1,5,0,0,0,-,4,100,109,118,126,135,144,153,161,170,200,179,158,136,115,94,73,51,30,-,-,-,-,0,0,7,45,2,-99,-99,-99,-99,16,0,-99,3,0,0,0,-,-1,-1,-1,-1,-1,-,225,45,-,140603_1201,2,subjects,4,6,2,0,0,0,2,0,0,0,0,0,0,0,0,0,0,0,0,0,0,0,0,0,0,1,3,2,6,4,5,0.090307075,0.439895078,0.168357464,0.816506815,0.77074325,0.800476674,1,1,4,1,0,0,6,3,8,0,0,10,0,0,0,0,5,0,0,-1,15,6,1,0,0,-1,,200,6,2,20,0,50,-,-,-,-,-,-,1,0,0,0,0,0,-,-,-,-,3,1,5,3,2,2,15,3,35,5,2,3,10,3,4,-,1,170,170,170,170,170,170,170,170,170,170,153,135,118,100,83,65,48,30,-,-,-,-,0,0,7,45,2,-99,-99,-99,-99,16,0,-99,3,0,0,0,-,-1,-1,-1,-1,-1,-,225,45,-,140603_1201,2,subjects,4,7,2,0,0,0,3,0,0,0,0,0,0,0,0,0,0,0,0,0,0,0,0,0,0,1,3,6,2,5,4,0.055023326,0.777033911,0.935470423,0.528329825,0.874553157,0.79462593,1,1,3,2,1,3,6,3,8,10,0,10,0,0,0,0,5,0,0,-1,25,7,1,0,0,-1,,200,3,1,30,0,40,-,-,-,-,-,-,1,0,0,0,0,0,-,-,-,-,2,3,1,5,3,3,19,3,30,5,3,4,30,5,3,-,1,170,170,170,170,170,170,170,170,170,170,153,135,118,100,83,65,48,30,-,-,-,-,0,0,7,45,2,-99,-99,-99,-99,16,0,-99,3,0,0,0,-,-1,-1,-1,-1,-1,-,255,51,-,140603_1201,2,subjects,4,8,2,0,0,0,4,0,0,0,0,0,0,0,0,0,0,0,0,0,0,0,0,0,0,5,3,4,1,6,2,0.451394316,0.35477028,0.43755321,0.075935857,0.608934061,0.278012106,1,1,3,1,1,0,6,3,0,10,0,10,0,0,0,0,5,0,0,-1,25,8,1,0,0,-1,,200,4,1,70,0,0,-,-,-,-,-,-,1,0,0,0,0,0,-,-,-,-,2,3,1,5,4,4,21,3,35,5,4,2,35,5,3,-,5,200,188,175,163,150,138,125,113,100,100,113,125,138,150,163,175,188,200,-,-,-,-,0,0,7,45,2,-99,-99,-99,-99,16,0,-99,3,0,0,0,-,-1,-1,-1,-1,-1,-,260,52,-,140603_1201,2,subjects,4,9,3,0,0,0,1,0,0,0,0,0,0,0,0,0,0,0,0,0,0,0,0,0,0,4,5,6,2,3,1,0.537621258,0.62241754,0.70804025,0.154863392,0.258668424,0.032479459,1,1,6,2,5,3,6,2,6,0,0,10,10,10,0,0,5,0,5,-1,40,9,1,0,0,-1,,200,5,1,35,0,35,-,-,-,-,-,-,1,0,0,0,0,0,-,-,-,-,2,3,2,5,1,1,26,3,0,5,1,5,0,0,0,-,4,100,109,118,126,135,144,153,161,170,200,179,158,136,115,94,73,51,30,-,-,-,-,0,0,7,45,2,-99,-99,-99,-99,16,0,-99,1,0,0,0,-,-1,-1,-1,-1,-1,-,240,48,-,140603_1201,2,subjects,4,10,3,0,0,0,2,0,0,0,0,0,0,0,0,0,0,0,0,0,0,0,0,0,0,5,6,1,4,3,2,0.584261508,0.817087798,0.214787616,0.486362156,0.324417586,0.288751747,1,1,6,1,5,0,6,3,6,0,0,10,0,10,0,0,5,0,5,-1,30,10,1,0,0,-1,,200,6,1,35,0,35,-,-,-,-,-,-,1,0,0,0,0,0,-,-,-,-,2,3,2,5,2,2,18,3,35,5,2,1,35,1,4,-,5,200,188,175,163,150,138,125,113,100,100,113,125,138,150,163,175,188,200,-,-,-,-,0,0,7,45,2,-99,-99,-99,-99,16,0,-99,1,0,0,0,-,-1,-1,-1,-1,-1,-,265,53,-,140603_1201,2,subjects,4,11,3,0,0,0,3,0,0,0,0,0,0,0,0,0,0,0,0,0,0,0,0,0,0,2,5,3,1,6,4,0.538968141,0.882259071,0.549470997,0.008318071,0.904177753,0.801823624,1,1,5,2,5,4,6,2,6,0,10,10,10,10,0,0,5,0,5,-1,50,11,1,0,0,-1,,200,7,1,35,0,35,-,-,-,-,-,-,1,0,0,0,0,0,-,-,-,-,2,3,4,6,4,4,21,3,60,6,4,3,30,3,3,-,2,170,174,178,181,185,189,193,196,200,30,39,48,56,65,74,83,91,100,-,-,-,-,0,0,7,45,2,-99,-99,-99,-99,16,0,-99,1,0,0,0,-,-1,-1,-1,-1,-1,-,280,56,-,140603_1201,2,subjects,4,12,3,0,0,0,4,0,0,0,0,0,0,0,0,0,0,0,0,0,0,0,0,0,0,2,3,6,1,5,4,0.290002733,0.593503202,0.923073512,0.084748124,0.807324808,0.606049061,1,1,5,1,5,0,6,4,6,0,0,10,0,10,0,0,5,0,5,-1,30,12,1,0,0,-1,,200,8,1,30,0,40,-,-,-,-,-,-,1,0,0,0,0,0,-,-,-,-,2,3,4,6,3,3,9,3,50,6,3,2,30,3,4,-,2,170,174,178,181,185,189,193,196,200,30,39,48,56,65,74,83,91,100,-,-,-,-,0,0,7,45,2,-99,-99,-99,-99,16,0,-99,1,0,0,0,-,-1,-1,-1,-1,-1,-,260,52,-,140603_1201,2,subjects,4,13,4,0,0,0,1,0,0,0,0,0,0,0,0,0,0,0,0,0,0,0,0,0,0,1,6,3,5,4,2,0.128203245,0.668442648,0.261338154,0.515588557,0.361716907,0.253947594,1,1,8,2,1,0,6,1,6,10,0,10,0,10,5,0,5,0,5,-1,45,1,2,0,0,-1,,0,2,2,35,0,35,-,-,-,-,-,-,1,0,0,0,0,0,-,-,-,-,3,1,6,1,1,2,22,3,35,6,1,5,0,0,0,-,1,170,170,170,170,170,170,170,170,170,170,153,135,118,100,83,65,48,30,-,-,-,-,0,0,7,45,2,-99,-99,-99,-99,16,0,-99,6,0,0,0,-,-1,-1,-1,-1,-1,-,45,9,-,140603_1201,2,subjects,4,14,4,0,0,0,2,0,0,0,0,0,0,0,0,0,0,0,0,0,0,0,0,0,0,6,3,5,4,2,1,0.913727423,0.485970866,0.876423756,0.531838285,0.249653903,0.030032845,1,1,8,1,1,0,6,3,6,10,0,10,0,10,5,0,5,0,5,-1,45,2,2,0,0,-1,,0,1,2,35,0,35,-,-,-,-,-,-,1,0,0,0,0,0,-,-,-,-,3,1,6,1,2,1,12,3,35,6,2,5,0,0,0,-,6,200,196,193,189,185,181,178,174,170,100,109,118,126,135,144,153,161,170,-,-,-,-,0,0,7,45,2,-99,-99,-99,-99,16,0,-99,6,0,0,0,-,-1,-1,-1,-1,-1,-,45,9,-,140603_1201,2,subjects,4,15,4,0,0,0,3,0,0,0,0,0,0,0,0,0,0,0,0,0,0,0,0,0,0,6,1,5,3,2,4,0.933154747,0.099831202,0.909447867,0.5312765,0.397833797,0.611466023,1,1,7,2,1,3,6,2,6,10,0,10,10,10,5,0,5,0,5,-1,55,3,2,0,0,-1,,0,8,2,35,0,35,-,-,-,-,-,-,1,0,0,0,0,0,-,-,-,-,3,1,6,3,3,4,23,3,20,6,3,4,20,6,3,-,6,200,196,193,189,185,181,178,174,170,100,109,118,126,135,144,153,161,170,-,-,-,-,0,0,7,45,2,-99,-99,-99,-99,16,0,-99,6,0,0,0,-,-1,-1,-1,-1,-1,-,75,15,-,140603_1201,2,subjects,4,16,4,0,0,0,4,0,0,0,0,0,0,0,0,0,0,0,0,0,0,0,0,0,0,4,5,6,3,1,2,0.697039315,0.711945525,0.895697627,0.675099532,0.162308189,0.624097982,1,1,7,1,1,6,6,0,6,10,0,10,0,10,5,0,5,0,5,-1,45,4,2,0,0,-1,,0,7,2,35,0,35,-,-,-,-,-,-,1,0,0,0,0,0,-,-,-,-,3,1,6,3,4,3,10,3,10,6,4,3,70,2,4,-,4,100,109,118,126,135,144,153,161,170,200,179,158,136,115,94,73,51,30,-,-,-,-,0,0,7,45,2,-99,-99,-99,-99,16,0,-99,6,0,0,0,-,-1,-1,-1,-1,-1,-,115,23,-,140603_1201,2,subjects,4,17,5,0,0,0,1,0,0,0,0,0,0,0,0,0,0,0,0,0,0,0,0,0,0,1,5,6,4,3,2,0.063479247,0.712339748,0.990011986,0.65839986,0.354489566,0.236930929,1,1,10,2,1,4,6,2,6,10,10,10,10,10,5,0,5,5,0,-1,65,5,2,0,0,-1,,0,5,3,0,0,70,-,-,-,-,-,-,1,0,0,0,0,0,-,-,-,-,1,2,3,2,1,1,19,3,30,5,1,1,35,2,2,-,1,170,170,170,170,170,170,170,170,170,170,153,135,118,100,83,65,48,30,-,-,-,-,0,0,7,45,2,-99,-99,-99,-99,16,0,-99,3,0,0,0,-,-1,-1,-1,-1,-1,-,100,20,-,140603_1201,2,subjects,4,18,5,0,0,0,2,0,0,0,0,0,0,0,0,0,0,0,0,0,0,0,0,0,0,3,4,5,1,2,6,0.392623977,0.417865382,0.440205805,0.097209932,0.16413718,0.906127802,1,1,10,1,1,0,6,2,0,10,0,10,10,0,5,0,5,5,0,-1,45,6,2,0,0,-1,,0,6,3,35,0,35,-,-,-,-,-,-,1,0,0,0,0,0,-,-,-,-,1,2,3,2,2,2,18,3,30,5,2,1,30,2,1,-,3,100,109,118,126,135,144,153,161,170,200,196,193,189,185,181,178,174,170,-,-,-,-,0,0,7,45,2,-99,-99,-99,-99,16,0,-99,3,0,0,0,-,-1,-1,-1,-1,-1,-,75,15,-,140603_1201,2,subjects,4,19,5,0,0,0,3,0,0,0,0,0,0,0,0,0,0,0,0,0,0,0,0,0,0,1,2,6,5,3,4,0.131454423,0.139772851,0.430586359,0.371542724,0.178755545,0.257613015,1,1,9,2,1,4,6,2,6,10,10,10,10,10,5,0,5,5,0,-1,65,7,2,0,0,-1,,0,3,3,30,0,40,-,-,-,-,-,-,1,0,0,0,0,0,-,-,-,-,1,2,2,1,3,3,12,3,30,5,3,1,45,3,3,-,1,170,170,170,170,170,170,170,170,170,170,153,135,118,100,83,65,48,30,-,-,-,-,0,0,7,45,2,-99,-99,-99,-99,16,0,-99,3,0,0,0,-,-1,-1,-1,-1,-1,-,110,22,-,140603_1201,2,subjects,4,20,5,0,0,0,4,0,0,0,0,0,0,0,0,0,0,0,0,0,0,0,0,0,0,1,5,6,3,2,4,0.098119821,0.482373869,0.863013929,0.37605105,0.123720565,0.445606157,1,1,9,1,1,4,6,2,6,10,10,10,10,10,5,0,5,5,0,-1,65,8,2,0,0,-1,,0,4,3,35,0,35,-,-,-,-,-,-,1,0,0,0,0,0,-,-,-,-,1,2,2,1,4,4,26,3,30,5,4,5,0,0,0,-,1,170,170,170,170,170,170,170,170,170,170,153,135,118,100,83,65,48,30,-,-,-,-,0,0,7,45,2,-99,-99,-99,-99,16,0,-99,3,0,0,0,-,-1,-1,-1,-1,-1,-,65,13,-,140603_1201,2,subjects,4,21,6,0,0,0,1,0,0,0,0,0,0,0,0,0,0,0,0,0,0,0,0,0,0,5,1,6,2,3,4,0.518562645,0.01679282,0.831173397,0.096508367,0.229511598,0.344447178,1,1,12,2,0,6,6,2,6,0,0,10,10,10,0,0,5,0,5,-1,40,9,2,0,0,-1,,0,2,3,35,0,35,-,-,-,-,-,-,1,0,0,0,0,0,-,-,-,-,1,2,1,4,2,1,25,3,30,6,1,5,0,0,0,-,5,200,188,175,163,150,138,125,113,100,100,113,125,138,150,163,175,188,200,-,-,-,-,0,0,7,45,2,-99,-99,-99,-99,16,0,-99,5,0,0,0,-,-1,-1,-1,-1,-1,-,40,8,-,140603_1201,2,subjects,4,22,6,0,0,0,2,0,0,0,0,0,0,0,0,0,0,0,0,0,0,0,0,0,0,4,6,5,3,1,2,0.430609579,0.899055787,0.701935538,0.392366903,0.064391593,0.379091591,1,1,12,1,1,4,6,3,6,10,10,10,0,10,0,0,5,0,5,-1,50,10,2,0,0,-1,,0,1,3,35,0,35,-,-,-,-,-,-,1,0,0,0,0,0,-,-,-,-,1,2,1,4,1,2,14,3,30,6,2,1,35,1,4,-,4,100,109,118,126,135,144,153,161,170,200,179,158,136,115,94,73,51,30,-,-,-,-,0,0,7,45,2,-99,-99,-99,-99,16,0,-99,5,0,0,0,-,-1,-1,-1,-1,-1,-,85,17,-,140603_1201,2,subjects,4,23,6,0,0,0,3,0,0,0,0,0,0,0,0,0,0,0,0,0,0,0,0,0,0,6,1,5,2,3,4,0.871421318,0.133460129,0.864931222,0.227023631,0.543409823,0.670340802,1,1,11,2,1,6,6,0,6,10,0,10,0,10,0,0,5,0,5,-1,40,11,2,0,0,-1,,0,8,3,50,0,20,-,-,-,-,-,-,1,0,0,0,0,0,-,-,-,-,1,2,3,4,4,3,16,3,30,6,3,1,25,3,3,-,6,200,196,193,189,185,181,178,174,170,100,109,118,126,135,144,153,161,170,-,-,-,-,0,0,7,45,2,-99,-99,-99,-99,16,0,-99,5,0,0,0,-,-1,-1,-1,-1,-1,-,65,13,-,140603_1201,2,subjects,4,24,6,0,0,0,4,0,0,0,0,0,0,0,0,0,0,0,0,0,0,0,0,0,0,2,5,4,3,1,6,0.516878607,0.858965042,0.688366352,0.624077552,0.289961272,0.866562144,1,1,11,1,1,0,6,2,6,10,0,10,10,10,0,0,5,0,5,-1,50,12,2,0,0,-1,,0,7,3,60,0,10,-,-,-,-,-,-,1,0,0,0,0,0,-,-,-,-,1,2,3,4,3,4,19,3,30,6,4,1,35,3,4,-,2,170,174,178,181,185,189,193,196,200,30,39,48,56,65,74,83,91,100,-,-,-,-,0,0,7,45,2,-99,-99,-99,-99,16,0,-99,5,0,0,0,-,-1,-1,-1,-1,-1,-,85,17,-,140603_1201,2,subjects,5,1,1,0,0,1,1,170,200,170,170,200,200,170,100,170,30,100,100,1,9,9,9,1,1,3,2,6,4,5,1,0.401431485,0.021437673,0.636272106,0.509369499,0.617243164,0.00555045,1,7,2,2,0,1,6,3,6,0,0,10,0,10,0,0,5,0,0,-1,25,1,1,0,0,-1,,200,1,1,35,0,35,-,-,-,-,-,-,1,0,0,0,0,0,-,-,-,-,2,3,5,6,3,3,24,2,35,5,3,1,30,1,1,21,1,170,170,170,170,170,170,170,170,170,170,153,135,118,100,83,65,48,30,1,0,-52,-,185,111.6666667,7,28.44292862,2,-99,-99,-99,-99,16,0,-99,4,115,135,115,21,5,6,6,5,5,99999,370,74,0,170140603_1201,2,subjects,5,2,1,0,0,1,2,170,200,170,135,175,170,170,100,170,115,125,170,1,9,9,5,3,9,4,2,3,6,5,1,0.271432077,0.162399334,0.255200952,0.84917297,0.286408388,0.086334351,1,7,2,1,1,1,6,2,5,10,0,10,10,0,0,0,5,0,0,-1,35,2,1,0,0,-1,,200,2,1,35,0,35,-,-,-,-,-,-,1,0,0,0,0,0,-,-,-,-,2,3,5,6,4,4,25,2,35,5,4,1,30,1,2,23,1,170,170,170,170,170,170,170,170,170,170,153,135,118,100,83,65,48,30,1,0,-66,-,170,141.6666667,7,38.82007575,2,-99,-99,-99,-99,16,0,-99,4,135,0,0,23,5,2,5,3,4,99999,400,80,3,170140603_1201,2,subjects,5,3,1,0,0,1,3,170,200,170,126,150,170,170,100,170,136,150,170,1,9,9,4,5,9,5,6,3,2,1,4,0.715023846,0.742718194,0.302968567,0.094531975,0.01264038,0.530543772,1,7,1,2,1,1,6,2,6,10,0,10,10,10,0,0,5,0,0,-1,45,3,1,0,0,-1,,200,3,1,35,0,35,-,-,-,-,-,-,1,0,0,0,0,0,-,-,-,-,2,3,2,4,2,4,16,2,35,2,2,4,40,5,3,9,4,100,109,118,126,135,144,153,161,170,200,179,158,136,115,94,73,51,30,4,0,-242,-,164.3333333,149.3333333,7,41.74395206,2,-99,-99,-99,-99,16,0,-99,4,30,170,30,11,6,4,6,6,4,99999,315,63,0,136140603_1201,2,subjects,5,4,1,0,0,1,4,170,200,170,170,200,170,170,100,170,30,100,170,1,9,9,9,1,9,6,5,3,1,4,2,0.45445847,0.446863984,0.139021481,0.005858033,0.333985273,0.054060421,1,7,1,1,0,3,6,0,6,0,0,10,0,10,0,0,5,0,0,-1,25,4,1,0,0,-1,,200,4,1,35,0,35,-,-,-,-,-,-,1,0,0,0,0,0,-,-,-,-,2,3,2,4,1,3,9,2,50,2,1,3,35,4,2,24,2,170,174,178,181,185,189,193,196,200,30,39,48,56,65,74,83,91,100,9,0,-224,-,180,123.3333333,7,32.39139321,2,-99,-99,-99,-99,16,0,-99,4,170,0,0,14,6,4,6,5,6,99999,430,86,0,100140603_1201,2,subjects,5,5,2,0,0,1,1,170,200,170,170,200,200,170,100,170,30,100,100,1,9,9,9,1,1,3,1,2,5,6,4,0.496871724,0.247461554,0.373269729,0.793461952,0.924256309,0.66577247,1,7,4,2,1,0,6,3,8,10,0,10,0,0,0,0,5,0,0,-1,25,5,1,0,0,-1,,200,4,2,20,0,50,-,-,-,-,-,-,1,0,0,0,0,0,-,-,-,-,3,1,4,1,3,4,20,2,30,2,1,3,35,3,3,23,4,100,109,118,126,135,144,153,161,170,200,179,158,136,115,94,73,51,30,9,0,-12,-,185,111.6666667,7,28.44292862,2,-99,-99,-99,-99,16,0,-99,2,74,189,74,23,5,4,6,5,4,99999,334,67,15,30140603_1201,2,subjects,5,6,2,0,0,1,2,170,189,170,144,175,200,170,74,170,94,125,100,1,6,9,6,3,1,1,3,2,6,4,5,0.023689658,0.271138413,0.072549829,0.798908277,0.285714102,0.515384728,1,7,4,1,0,0,6,3,8,0,0,10,0,0,0,0,5,0,0,-1,15,6,1,0,0,-1,,200,3,2,35,0,35,-,-,-,-,-,-,1,0,0,0,0,0,-,-,-,-,3,1,4,1,4,3,16,2,30,2,2,4,35,5,2,22,5,200,188,175,163,150,138,125,113,100,100,113,125,138,150,163,175,188,200,3,0,-80,-,174.6666667,122.1666667,7,32.99245909,2,-99,-99,-99,-99,16,0,-99,2,189,0,0,22,5,5,5,5,5,99999,439,88,8,125140603_1201,2,subjects,5,7,2,0,0,1,3,170,200,170,135,163,174,153,100,170,115,138,161,2,9,9,5,4,8,3,1,4,5,6,2,0.290482479,0.022408464,0.647044392,0.958913218,0.992711928,0.15302667,1,7,3,2,1,3,6,3,8,10,0,10,0,0,0,0,5,0,0,-1,25,7,1,0,0,-1,,200,7,1,35,0,35,-,-,-,-,-,-,1,0,0,0,0,0,-,-,-,-,2,3,3,4,3,1,22,2,35,3,3,2,35,5,4,24,2,170,174,178,181,185,189,193,196,200,30,39,48,56,65,74,83,91,100,9,0,-61,-,168.6666667,139.5,7,38.55427633,2,-99,-99,-99,-99,16,0,-99,2,100,200,100,26,6,4,6,5,6,99999,360,72,13,100140603_1201,2,subjects,5,8,2,0,0,1,4,170,200,170,170,200,200,170,100,170,30,100,100,1,9,9,9,1,1,1,2,3,4,5,6,0.457980076,0.534030938,0.544327887,0.575352342,0.817850996,0.973166695,1,7,3,1,1,0,6,3,0,10,0,10,0,0,0,0,5,0,0,-1,25,8,1,0,0,-1,,200,8,1,0,0,70,-,-,-,-,-,-,1,0,0,0,0,0,-,-,-,-,2,3,3,4,4,2,20,2,35,3,4,4,35,5,4,15,6,200,196,193,189,185,181,178,174,170,100,109,118,126,135,144,153,161,170,1,0,-101,-,185,111.6666667,7,28.44292862,2,-99,-99,-99,-99,16,0,-99,2,200,0,0,24,5,4,5,4,2,99999,460,92,0,100140603_1201,2,subjects,5,9,3,0,0,1,1,170,200,170,100,150,170,170,100,170,200,150,170,1,9,9,1,5,9,3,2,1,6,4,5,0.362234961,0.116873072,0.071121199,0.651774963,0.504895161,0.619054492,1,7,6,2,5,3,6,2,6,0,0,10,10,10,0,0,5,0,5,-1,40,9,1,0,0,-1,,200,5,1,35,0,35,-,-,-,-,-,-,1,0,0,0,0,0,-,-,-,-,2,3,5,6,1,1,28,2,35,5,1,4,0,5,1,21,5,200,188,175,163,150,138,125,113,100,100,113,125,138,150,163,175,188,200,5,0,-27,-,160,160,7,45,2,-99,-99,-99,-99,16,0,-99,6,170,170,170,21,6,4,4,5,4,99999,410,82,0,150140603_1201,2,subjects,5,10,3,0,0,1,2,170,200,170,100,200,170,170,100,170,200,100,170,1,9,9,1,1,9,2,1,5,3,4,6,0.083508689,0.060637959,0.858357228,0.344980932,0.534101499,0.946814278,1,7,6,1,5,0,6,3,6,0,0,10,0,10,0,0,5,0,5,-1,30,10,1,0,0,-1,,200,6,1,35,0,35,-,-,-,-,-,-,1,0,0,0,0,0,-,-,-,-,2,3,5,6,2,2,19,2,20,5,2,2,30,3,2,22,6,200,196,193,189,185,181,178,174,170,100,109,118,126,135,144,153,161,170,9,0,-205,-,168.3333333,151.6666667,7,41.46770542,2,-99,-99,-99,-99,16,0,-99,6,170,0,0,23,5,6,6,5,5,99999,430,86,0,170140603_1201,2,subjects,5,11,3,0,0,1,3,170,200,170,144,200,170,170,100,170,94,100,170,1,9,9,6,1,9,5,2,6,3,1,4,0.772973299,0.256382679,0.875090842,0.573250674,0.107572294,0.643901984,1,7,5,2,5,4,6,2,6,0,10,10,10,10,0,0,5,0,5,-1,50,11,1,0,0,-1,,200,7,2,35,0,35,-,-,-,-,-,-,1,0,0,0,0,0,-,-,-,-,3,1,4,2,1,3,25,2,30,3,3,5,30,3,3,23,4,100,109,118,126,135,144,153,161,170,200,179,158,136,115,94,73,51,30,6,0,-88,-,175.6666667,134,7,35.88390771,2,-99,-99,-99,-99,16,0,-99,6,100,200,100,21,6,4,5,5,5,99999,380,76,3,94140603_1201,2,subjects,5,12,3,0,0,1,4,170,200,170,170,200,200,30,100,170,30,100,100,9,9,9,9,1,1,2,1,3,5,6,4,0.142182079,0.082996421,0.453843073,0.92084104,0.996914174,0.502203493,1,7,5,1,5,0,6,4,6,0,0,10,0,10,0,0,5,0,5,-1,30,12,1,0,0,-1,,200,8,2,35,0,35,-,-,-,-,-,-,1,0,0,0,0,0,-,-,-,-,3,1,4,2,2,4,14,2,30,3,4,2,30,3,4,22,4,100,109,118,126,135,144,153,161,170,200,179,158,136,115,94,73,51,30,9,0,-4,-,185,88.33333333,7,21.59531045,3,-99,-99,-99,-99,16,0,-99,6,200,0,0,24,5,4,6,3,2,99999,460,92,13,30140603_1201,2,subjects,5,13,4,0,0,1,1,170,200,170,170,200,200,170,100,170,30,100,100,1,9,9,9,1,1,4,2,5,3,1,6,0.654197457,0.043865539,0.740523436,0.564438352,0.010505126,0.749658172,1,7,8,2,1,0,6,1,6,10,0,10,0,10,5,0,5,0,5,-1,45,1,2,0,0,-1,,0,7,3,35,0,35,-,-,-,-,-,-,1,0,0,0,0,0,-,-,-,-,1,2,2,3,3,3,25,2,35,3,3,2,30,4,1,21,6,200,196,193,189,185,181,178,174,170,100,109,118,126,135,144,153,161,170,1,0,-162,-,185,111.6666667,7,28.44292862,2,-99,-99,-99,-99,16,0,-99,2,100,200,100,18,4,5,6,6,4,99999,175,35,0,100140603_1201,2,subjects,5,14,4,0,0,1,2,170,200,170,170,200,200,170,100,170,30,100,100,1,9,9,9,1,1,2,4,3,6,5,1,0.098311149,0.559650376,0.216358264,0.91382378,0.594458578,0.096653409,1,7,8,1,1,0,6,3,6,10,0,10,0,10,5,0,5,0,5,-1,45,2,2,0,0,-1,,0,8,3,35,0,35,-,-,-,-,-,-,1,0,0,0,0,0,-,-,-,-,1,2,2,3,4,4,21,2,35,3,4,4,35,6,2,0,1,170,170,170,170,170,170,170,170,170,170,153,135,118,100,83,65,48,30,1,0,-52,-,185,111.6666667,7,28.44292862,2,-99,-99,-99,-99,16,0,-99,2,200,0,0,23,6,6,6,6,4,99999,280,56,0,170140603_1201,2,subjects,5,15,4,0,0,1,3,170,200,170,170,200,170,170,100,170,30,100,170,1,9,9,9,1,9,4,1,2,3,6,5,0.35348758,0.10199419,0.205732408,0.248937578,0.787297964,0.381806533,1,7,7,2,1,3,6,2,6,10,0,10,10,10,5,0,5,0,5,-1,55,3,2,0,0,-1,,0,4,3,35,0,35,-,-,-,-,-,-,1,0,0,0,0,0,-,-,-,-,1,2,1,2,4,1,21,2,20,2,1,4,20,6,3,24,5,200,188,175,163,150,138,125,113,100,100,113,125,138,150,163,175,188,200,1,0,-12,-,180,123.3333333,7,32.39139321,2,-99,-99,-99,-99,16,0,-99,2,65,185,65,24,6,6,6,3,4,99999,140,28,0,100140603_1201,2,subjects,5,16,4,0,0,1,4,170,185,135,170,150,170,170,65,185,30,150,170,1,5,5,9,5,9,3,2,4,5,6,1,0.442986341,0.310382249,0.448845699,0.862025764,0.977396442,0.065327694,1,7,7,1,1,6,6,0,6,10,0,10,0,10,5,0,5,0,5,-1,45,4,2,0,0,-1,,0,3,3,35,0,35,-,-,-,-,-,-,1,0,0,0,0,0,-,-,-,-,1,2,1,2,3,2,21,2,35,2,2,2,35,3,2,22,1,170,170,170,170,170,170,170,170,170,170,153,135,118,100,83,65,48,30,1,0,-81,-,163.3333333,128.3333333,7,36.75928817,2,-99,-99,-99,-99,16,0,-99,2,185,0,0,21,6,6,5,5,1,99999,265,53,0,170140603_1201,2,subjects,5,17,5,0,0,1,1,170,200,170,170,200,170,170,100,170,30,100,170,1,9,9,9,1,9,3,2,5,4,6,1,0.0950384,0.066949873,0.225315733,0.120350853,0.881524302,0.059142649,1,7,10,2,1,4,6,2,6,10,10,10,10,10,5,0,5,5,0,-1,65,5,2,0,0,-1,,0,5,2,35,0,35,-,-,-,-,-,-,1,0,0,0,0,0,-,-,-,-,3,1,6,3,1,1,23,2,30,5,1,5,30,5,1,22,1,170,170,170,170,170,170,170,170,170,170,153,135,118,100,83,65,48,30,1,0,-42,-,180,123.3333333,7,32.39139321,2,-99,-99,-99,-99,16,0,-99,1,100,170,100,17,5,4,5,4,3,99999,195,39,0,170140603_1201,2,subjects,5,18,5,0,0,1,2,170,200,170,144,175,181,100,100,170,94,125,144,5,9,9,6,3,6,5,4,6,3,1,2,0.769566152,0.518533927,0.962556492,0.333344353,0.023315188,0.188641676,1,7,10,1,1,0,6,2,0,10,0,10,10,0,5,0,5,5,0,-1,45,6,2,0,0,-1,,0,6,2,50,0,20,-,-,-,-,-,-,1,0,0,0,0,0,-,-,-,-,3,1,6,3,2,2,0,2,30,5,2,5,30,5,2,22,2,170,174,178,181,185,189,193,196,200,30,39,48,56,65,74,83,91,100,9,0,-150,-,173.3333333,122.1666667,7,33.22705123,2,-99,-99,-99,-99,16,0,-99,1,170,0,0,12,5,5,6,5,5,99999,245,49,14,100140603_1201,2,subjects,5,19,5,0,0,1,3,170,200,170,135,200,185,170,100,170,115,100,135,1,9,9,5,1,5,2,5,4,6,1,3,0.226519923,0.578345483,0.315475019,0.681172136,0.136529246,0.248116561,1,7,9,2,1,4,6,2,6,10,10,10,10,10,5,0,5,5,0,-1,65,7,2,0,0,-1,,0,1,2,35,0,35,-,-,-,-,-,-,1,0,0,0,0,0,-,-,-,-,3,1,6,1,3,1,25,2,30,5,3,1,45,3,3,22,3,100,109,118,126,135,144,153,161,170,200,196,193,189,185,181,178,174,170,9,0,-91,-,176.6666667,131.6666667,7,35.11859388,2,-99,-99,-99,-99,16,0,-99,1,170,170,170,23,5,5,6,5,5,99999,280,56,0,170140603_1201,2,subjects,5,20,5,0,0,1,4,170,200,170,170,200,200,170,100,170,30,100,100,1,9,9,9,1,1,3,6,5,2,1,4,0.317750185,0.743592069,0.500645772,0.161360448,0.05010249,0.409122876,1,7,9,1,1,4,6,2,6,10,10,10,10,10,5,0,5,5,0,-1,65,8,2,0,0,-1,,0,2,2,35,0,35,-,-,-,-,-,-,1,0,0,0,0,0,-,-,-,-,3,1,6,1,4,2,20,2,30,5,4,5,30,5,4,22,4,100,109,118,126,135,144,153,161,170,200,179,158,136,115,94,73,51,30,9,0,-60,-,185,111.6666667,7,28.44292862,2,-99,-99,-99,-99,16,0,-99,1,170,0,0,14,6,6,6,6,6,99999,265,53,13,30140603_1201,2,subjects,5,21,6,0,0,1,1,170,200,170,126,150,170,170,100,170,136,150,170,1,9,9,4,5,9,3,5,6,1,4,2,0.152088596,0.948273765,0.985046776,0.063022866,0.778936059,0.128170486,1,7,12,2,0,6,6,2,6,0,0,10,10,10,0,0,5,0,5,-1,40,9,2,0,0,-1,,0,5,3,35,0,35,-,-,-,-,-,-,1,0,0,0,0,0,-,-,-,-,1,2,3,5,1,1,24,2,35,5,1,1,35,1,3,24,2,170,174,178,181,185,189,193,196,200,30,39,48,56,65,74,83,91,100,9,0,-142,-,164.3333333,149.3333333,7,41.74395206,2,-99,-99,-99,-99,16,0,-99,5,100,200,100,12,6,5,6,6,6,99999,175,35,2,100140603_1201,2,subjects,5,22,6,0,0,1,2,170,200,170,170,200,200,170,100,170,30,100,100,1,9,9,9,1,1,2,4,6,1,3,5,0.742559347,0.837554899,0.967543417,0.194940259,0.747921565,0.954904086,1,7,12,1,1,4,6,3,6,10,10,10,0,10,0,0,5,0,5,-1,50,10,2,0,0,-1,,0,6,3,0,0,70,-,-,-,-,-,-,1,0,0,0,0,0,-,-,-,-,1,2,3,5,2,2,16,2,50,5,2,3,35,5,4,21,5,200,188,175,163,150,138,125,113,100,100,113,125,138,150,163,175,188,200,1,0,-62,-,185,111.6666667,7,28.44292862,2,-99,-99,-99,-99,16,0,-99,5,200,0,0,3,6,3,5,5,6,99999,285,57,0,100140603_1201,2,subjects,5,23,6,0,0,1,3,170,200,170,161,188,193,153,100,170,51,113,118,2,9,9,8,2,3,3,1,2,5,4,6,0.577289633,0.427366192,0.50739231,0.78517914,0.736780736,0.899122097,1,7,11,2,1,6,6,0,6,10,0,10,0,10,0,0,5,0,5,-1,40,11,2,0,0,-1,,0,1,3,40,0,30,-,-,-,-,-,-,1,0,0,0,0,0,-,-,-,-,1,2,1,5,1,3,20,2,35,5,3,3,35,4,1,24,6,200,196,193,189,185,181,178,174,170,100,109,118,126,135,144,153,161,170,3,0,-36,-,180.3333333,117.5,7,30.77352618,2,-99,-99,-99,-99,16,0,-99,5,100,200,100,15,5,5,6,6,5,99999,175,35,18,118140603_1201,2,subjects,5,24,6,0,0,1,4,170,170,170,170,200,200,170,30,170,30,100,100,1,1,9,9,1,1,1,3,6,2,4,5,0.179175886,0.505812902,0.765741924,0.236724754,0.63716666,0.686961954,1,7,11,1,1,0,6,2,6,10,0,10,10,10,0,0,5,0,5,-1,50,12,2,0,0,-1,,0,2,3,20,0,50,-,-,-,-,-,-,1,0,0,0,0,0,-,-,-,-,1,2,1,5,2,4,20,2,35,5,4,1,35,3,4,22,5,200,188,175,163,150,138,125,113,100,100,113,125,138,150,163,175,188,200,1,0,-32,-,180,100,7,25.82099197,2,-99,-99,-99,-99,16,0,-99,5,200,0,0,23,4,5,3,3,2,99999,285,57,10,100,,,,,,,,,,,,,,,,,,,,,,,,,,,,,,,,,,,,,,,,,,,,,,,,,,,,,,,,,,,,,,,,,,,,,,,,,,,,,,,,,,,,,,,,,,,,,,,,,,,,,,,,,,,,,,,,,,,,,,,,,,,,,,,,,,,,,,,,,,,,,,,,,,,,,,,,,,,,,,,,,,,,,,,,,,,,,,,,,,,,,,,,,,,,,,,,,,,,,,,,,,,,,,,,,,,,,,,,,,,,,,,,,,,,,,,,,,,,,,,,,,,,,,,,,,,,,,,,,,,,,,,,,,,,,,,,,,,,,,,,,,,,,,,,,,,,,,,,,,,,,,,,,,,,