sid,period,recipient,sessionid,subject,group,profit,totalprofit,pair,roletrust,numingroup,svogroup,role,roledictator,trio,trustprofit,give,other1,other2,otherteam,othernum,dictator_roundpay,dictator_team,dictator_num,dictatorprofit,selectedteam,selectednum,mean_to_self,mean_to_other,not_altru_indiv,inequality_aversion_score,payed_slider,svoprofit,kept_of_sender,received_from_sender,totalpayoff,topay,session,groupid,correct,correct_group,svo_angle,svo_type,collectivism,sent,returned,kindness,norsent,discrimination,partner_team,partner_id,direct,otherdirect,greciprocity,othergreciprocity,ingroup,otheringroup,conddirect,condgrec,condin,condition,_est_disc_senders,_est_discrimination,_est_disc_responders,subdisc,inbiasround,inbias,groupbias,groupkindness,groupsend,history,baseline,falsebaseline,indcondition
1,1,1,140610_0932,1,1,0,0,1,Sender,1,2,2,1,2,200,35,2,3,4,2,30,1,1,0,0,0,0,0,0,-99,5,0,0,0,250,42,1,1,4,2,28.442928,2,4,100,100,.33333334,.66666669,0,4,1,0,0,1,0,0,0,0,1,0,Group,1,1,0,0,,0,-10,,72.25,0,0,0,Group
1,1,2,140610_0932,1,1,0,0,1,Sender,1,2,2,1,2,200,35,2,3,6,2,30,1,1,0,0,0,0,0,0,-99,5,0,0,0,250,42,1,1,4,2,28.442928,2,4,100,100,.33333334,.66666669,0,4,1,0,0,0,1,0,0,0,1,0,Group,1,1,0,0,,0,-10,,72.25,0,1,1,Baseline
1,2,1,140610_0932,1,1,0,0,1,Sender,1,2,2,1,7,200,35,2,3,5,1,1,5,1,0,0,0,0,0,0,-99,6,0,0,0,250,42,1,1,4,2,28.442928,2,4,100,100,.33333334,.66666669,0,4,1,0,0,0,0,0,0,0,0,0,Baseline,1,1,0,0,,,,,72.25,0,1,0,Baseline
1,2,2,140610_0932,1,1,0,0,1,Sender,1,2,2,1,7,200,35,2,3,5,3,1,5,1,0,0,0,0,0,0,-99,6,0,0,0,250,42,1,1,4,2,28.442928,2,4,100,100,.33333334,.66666669,0,4,1,0,0,0,0,0,0,0,0,0,Baseline,1,1,0,0,,,,,72.25,0,1,0,Baseline
1,3,1,140610_0932,1,1,0,0,1,Sender,1,2,2,1,7,200,35,2,3,1,4,50,1,4,1,5,1,0,0,0,-99,5,0,0,0,251,42,1,1,4,2,28.442928,2,4,100,100,.33333334,.66666669,0,4,1,0,0,0,0,1,0,0,0,1,In-Group,1,1,0,0,0,,,,72.25,1,0,0,In-Group
1,3,2,140610_0932,1,1,0,0,1,Sender,1,2,2,1,7,200,35,2,3,3,1,50,1,4,1,5,1,0,0,0,-99,5,0,0,0,251,42,1,1,4,2,28.442928,2,4,100,100,.33333334,.66666669,0,4,1,0,0,0,0,0,1,0,0,1,In-Group,1,1,0,0,0,,,,72.25,1,1,1,Baseline
1,4,1,140610_0932,1,1,0,0,1,Sender,1,2,2,1,4,200,35,2,3,3,1,30,1,1,1,5,1,0,0,0,-99,2,0,0,0,251,42,1,1,4,2,28.442928,2,4,100,100,.33333334,.66666669,0,4,1,0,0,0,0,0,0,0,0,0,Baseline,1,1,0,,,,,,72.25,0,1,0,Baseline
1,4,2,140610_0932,1,1,0,0,1,Sender,1,2,2,1,4,200,35,2,3,6,2,30,1,1,1,5,1,0,0,0,-99,2,0,0,0,251,42,1,1,4,2,28.442928,2,4,100,100,.33333334,.66666669,0,4,1,0,0,0,0,0,0,0,0,0,Baseline,1,1,0,,,,,,72.25,0,1,0,Baseline
1,5,1,140610_0932,1,1,0,0,1,Sender,1,2,2,1,4,200,35,2,3,4,3,30,1,1,30,1,1,0,0,0,-99,6,0,0,0,280,47,1,1,4,2,28.442928,2,4,100,100,.33333334,.66666669,0,4,1,0,0,1,0,0,0,0,1,0,Group,1,1,0,,,,,,72.25,0,0,0,Group
1,5,2,140610_0932,1,1,0,0,1,Sender,1,2,2,1,4,200,35,2,3,5,1,30,1,1,30,1,1,0,0,0,-99,6,0,0,0,280,47,1,1,4,2,28.442928,2,4,100,100,.33333334,.66666669,0,4,1,0,0,0,1,0,0,0,1,0,Group,1,1,0,,,,,,72.25,0,1,1,Baseline
1,6,1,140610_0932,1,1,0,0,1,Sender,1,2,2,1,6,200,35,2,3,3,4,35,4,1,50,1,4,185,111.666666666667,0,-99,4,115,135,115,415,70,1,1,4,2,28.442928,2,4,100,100,.33333334,.66666669,0,4,1,0,1,0,0,0,0,1,0,0,Direct,1,1,0,0,,,,,72.25,1,1,1,Baseline
1,6,2,140610_0932,1,1,0,0,1,Sender,1,2,2,1,6,200,35,2,3,4,1,35,4,1,50,1,4,185,111.666666666667,0,-99,4,115,135,115,415,70,1,1,4,2,28.442928,2,4,100,100,.33333334,.66666669,0,4,1,1,0,0,0,0,0,1,0,0,Direct,1,1,0,0,,,,,72.25,1,0,0,Direct
2,1,1,140610_0932,2,1,0,0,2,Sender,2,2,1,1,1,165,35,2,3,2,1,30,1,2,0,0,0,0,0,0,-99,5,0,0,0,195,33,1,1,2,2,37.023232,2,5,40,5,.041666668,.26666668,0,4,2,0,0,0,1,0,0,0,1,0,Group,1,1,0,0,,0,-10,,72.25,0,1,1,Baseline
2,1,2,140610_0932,2,1,0,0,2,Sender,2,2,1,1,1,165,35,2,3,4,1,30,1,2,0,0,0,0,0,0,-99,5,0,0,0,195,33,1,1,2,2,37.023232,2,5,40,5,.041666668,.26666668,0,4,2,0,0,1,0,0,0,0,1,0,Group,1,1,0,0,,0,-10,,72.25,0,0,0,Group
2,2,1,140610_0932,2,1,0,0,2,Sender,2,2,1,1,4,200,35,2,3,4,4,35,4,4,30,1,2,0,0,0,-99,6,0,0,0,260,44,1,1,2,2,37.023232,2,5,40,5,.041666668,.26666668,0,4,2,0,0,1,0,0,0,0,1,0,Group,1,1,0,,,,,,72.25,0,0,0,Group
2,2,2,140610_0932,2,1,0,0,2,Sender,2,2,1,1,4,200,35,2,3,5,2,35,4,4,30,1,2,0,0,0,-99,6,0,0,0,260,44,1,1,2,2,37.023232,2,5,40,5,.041666668,.26666668,0,4,2,0,0,0,1,0,0,0,1,0,Group,1,1,0,,,,,,72.25,0,1,1,Baseline
2,3,1,140610_0932,2,1,0,0,2,Sender,2,2,1,1,6,200,35,2,3,3,3,35,3,3,0,0,0,0,0,0,-99,5,0,0,0,230,39,1,1,2,2,37.023232,2,5,40,5,.041666668,.26666668,0,4,2,0,1,0,0,0,0,1,0,0,Direct,1,1,0,0,,,,,72.25,1,1,1,Baseline
2,3,2,140610_0932,2,1,0,0,2,Sender,2,2,1,1,6,200,35,2,3,4,2,35,3,3,0,0,0,0,0,0,-99,5,0,0,0,230,39,1,1,2,2,37.023232,2,5,40,5,.041666668,.26666668,0,4,2,1,0,0,0,0,0,1,0,0,Direct,1,1,0,0,,,,,72.25,1,0,0,Direct
2,4,1,140610_0932,2,1,0,0,2,Sender,2,2,1,1,6,200,35,2,3,2,1,30,1,2,30,1,2,0,0,0,-99,2,0,0,0,260,44,1,1,2,2,37.023232,2,5,40,5,.041666668,.26666668,0,4,2,0,0,0,0,0,0,0,0,0,Baseline,1,1,0,,,,,,72.25,0,1,0,Baseline
2,4,2,140610_0932,2,1,0,0,2,Sender,2,2,1,1,6,200,35,2,3,5,1,30,1,2,30,1,2,0,0,0,-99,2,0,0,0,260,44,1,1,2,2,37.023232,2,5,40,5,.041666668,.26666668,0,4,2,0,0,0,0,0,0,0,0,0,Baseline,1,1,0,,,,,,72.25,0,1,0,Baseline
2,5,1,140610_0932,2,1,0,0,2,Sender,2,2,1,1,7,200,35,2,3,5,2,30,1,2,30,1,2,0,0,0,-99,6,0,0,0,260,44,1,1,2,2,37.023232,2,5,40,5,.041666668,.26666668,0,4,2,0,0,0,0,0,0,0,0,0,Baseline,1,1,0,0,,,,,72.25,0,1,0,Baseline
2,5,2,140610_0932,2,1,0,0,2,Sender,2,2,1,1,7,200,35,2,3,5,4,30,1,2,30,1,2,0,0,0,-99,6,0,0,0,260,44,1,1,2,2,37.023232,2,5,40,5,.041666668,.26666668,0,4,2,0,0,0,0,0,0,0,0,0,Baseline,1,1,0,0,,,,,72.25,0,1,0,Baseline
2,6,1,140610_0932,2,1,0,0,2,Sender,2,2,1,1,7,200,35,2,3,1,3,30,3,2,30,1,2,174.166666666667,137.5,0,-99,4,135,0,0,395,66,1,1,2,2,37.023232,2,5,40,5,.041666668,.26666668,0,4,2,0,0,0,0,1,0,0,0,1,In-Group,1,1,0,0,0,,,,72.25,1,0,0,In-Group
2,6,2,140610_0932,2,1,0,0,2,Sender,2,2,1,1,7,200,35,2,3,3,2,30,3,2,30,1,2,174.166666666667,137.5,0,-99,4,135,0,0,395,66,1,1,2,2,37.023232,2,5,40,5,.041666668,.26666668,0,4,2,0,0,0,0,0,1,0,0,1,In-Group,1,1,0,0,0,,,,72.25,1,1,1,Baseline
3,1,1,140610_0932,3,1,0,0,3,Sender,3,1,2,1,4,200,40,2,3,3,3,30,1,3,0,0,0,0,0,0,-99,5,0,0,0,250,42,1,1,4,2,34.348942,2,3.8,0,0,,0,10,4,3,0,0,0,0,0,0,0,0,0,Baseline,1,1,0,,,-70,-10,,72.25,0,1,0,Baseline
3,1,2,140610_0932,3,1,0,0,3,Sender,3,1,2,1,4,200,30,2,3,6,4,30,1,3,0,0,0,0,0,0,-99,5,0,0,0,250,42,1,1,4,2,34.348942,2,3.8,0,0,,0,10,4,3,0,0,0,0,0,0,0,0,0,Baseline,1,1,0,,,-70,-10,,72.25,0,1,0,Baseline
3,2,1,140610_0932,3,1,0,0,3,Sender,3,1,2,1,5,200,40,2,3,2,1,0,2,1,0,0,0,0,0,0,-99,6,0,0,0,250,42,1,1,4,2,34.348942,2,3.8,0,0,,0,10,4,3,0,1,0,0,0,0,1,0,0,Direct,1,1,0,10,,,,,72.25,1,1,1,Baseline
3,2,2,140610_0932,3,1,0,0,3,Sender,3,1,2,1,5,200,30,2,3,4,3,0,2,1,0,0,0,0,0,0,-99,6,0,0,0,250,42,1,1,4,2,34.348942,2,3.8,0,0,,0,10,4,3,1,0,0,0,0,0,1,0,0,Direct,1,1,0,10,,,,,72.25,1,0,0,Direct
3,3,1,140610_0932,3,1,0,0,3,Sender,3,1,2,1,3,200,0,2,3,2,2,35,2,2,0,2,1,0,0,0,-99,5,0,0,0,250,42,1,1,4,2,34.348942,2,3.8,0,0,,0,70,4,3,0,0,0,0,0,0,0,0,0,Baseline,1,1,0,40,,,,,72.25,0,1,0,Baseline
3,3,2,140610_0932,3,1,0,0,3,Sender,3,1,2,1,3,200,70,2,3,5,3,35,2,2,0,2,1,0,0,0,-99,5,0,0,0,250,42,1,1,4,2,34.348942,2,3.8,0,0,,0,70,4,3,0,0,0,0,0,0,0,0,0,Baseline,1,1,0,40,,,,,72.25,0,1,0,Baseline
3,4,1,140610_0932,3,1,0,0,3,Sender,3,1,2,1,2,200,0,2,3,4,4,30,1,3,30,1,3,0,0,0,-99,2,0,0,0,280,47,1,1,4,2,34.348942,2,3.8,0,0,,0,70,4,3,0,0,1,0,0,0,0,1,0,Group,1,1,0,,,,,,72.25,0,0,0,Group
3,4,2,140610_0932,3,1,0,0,3,Sender,3,1,2,1,2,200,70,2,3,6,4,30,1,3,30,1,3,0,0,0,-99,2,0,0,0,280,47,1,1,4,2,34.348942,2,3.8,0,0,,0,70,4,3,0,0,0,1,0,0,0,1,0,Group,1,1,0,,,,,,72.25,0,1,1,Baseline
3,5,1,140610_0932,3,1,0,0,3,Sender,3,1,2,1,3,200,70,2,3,3,3,30,1,3,0,2,1,0,0,0,-99,6,0,0,0,250,42,1,1,4,2,34.348942,2,3.8,0,0,,0,70,4,3,0,0,0,1,0,0,0,1,0,Group,1,1,0,70,,,,,72.25,0,1,1,Baseline
3,5,2,140610_0932,3,1,0,0,3,Sender,3,1,2,1,3,200,0,2,3,4,1,30,1,3,0,2,1,0,0,0,-99,6,0,0,0,250,42,1,1,4,2,34.348942,2,3.8,0,0,,0,70,4,3,0,0,1,0,0,0,0,1,0,Group,1,1,0,70,,,,,72.25,0,0,0,Group
3,6,1,140610_0932,3,1,0,0,3,Sender,3,1,2,2,7,200,70,3,1,3,2,40,3,2,30,1,3,177.666666666667,129.333333333333,0,-99,4,30,170,30,310,52,1,1,4,2,34.348942,2,3.8,0,0,,0,70,4,3,0,0,0,0,0,1,0,0,1,In-Group,1,1,0,70,-70,,,,72.25,1,1,1,Baseline
3,6,2,140610_0932,3,1,0,0,3,Sender,3,1,2,2,7,200,0,3,1,1,2,40,3,2,30,1,3,177.666666666667,129.333333333333,0,-99,4,30,170,30,310,52,1,1,4,2,34.348942,2,3.8,0,0,,0,70,4,3,0,0,0,0,1,0,0,0,1,In-Group,1,1,0,70,-70,,,,72.25,1,0,0,In-Group
4,1,1,140610_0932,4,1,0,0,4,Sender,4,1,1,1,6,231,35,2,3,2,3,30,1,4,0,0,0,0,0,0,-99,5,0,0,0,261,44,1,1,2,2,28.442928,2,5,149,180,.40268457,.99333334,0,4,4,0,0,0,0,0,0,0,0,0,Baseline,1,1,0,0,,30,-10,,72.25,0,1,0,Baseline
4,1,2,140610_0932,4,1,0,0,4,Sender,4,1,1,1,6,231,35,2,3,5,3,30,1,4,0,0,0,0,0,0,-99,5,0,0,0,261,44,1,1,2,2,28.442928,2,5,149,180,.40268457,.99333334,0,4,4,0,0,0,0,0,0,0,0,0,Baseline,1,1,0,0,,30,-10,,72.25,0,1,0,Baseline
4,2,1,140610_0932,4,1,0,0,4,Sender,4,1,1,1,3,200,35,2,3,3,4,35,3,4,35,3,4,0,0,0,-99,6,0,0,0,265,45,1,1,2,2,28.442928,2,5,149,180,.40268457,.99333334,0,4,4,0,0,0,1,0,0,0,1,0,Group,1,1,0,0,,,,,72.25,0,1,1,Baseline
4,2,2,140610_0932,4,1,0,0,4,Sender,4,1,1,1,3,200,35,2,3,4,2,35,3,4,35,3,4,0,0,0,-99,6,0,0,0,265,45,1,1,2,2,28.442928,2,5,149,180,.40268457,.99333334,0,4,4,0,0,1,0,0,0,0,1,0,Group,1,1,0,0,,,,,72.25,0,0,0,Group
4,3,1,140610_0932,4,1,0,0,4,Sender,4,1,1,2,7,200,20,3,1,3,1,30,1,4,0,0,0,0,0,0,-99,5,0,0,0,230,39,1,1,2,2,28.442928,2,5,149,180,.40268457,.99333334,30,4,4,0,0,0,0,0,1,0,0,1,In-Group,1,1,0,30,30,,,,72.25,1,1,1,Baseline
4,3,2,140610_0932,4,1,0,0,4,Sender,4,1,1,2,7,200,50,3,1,1,1,30,1,4,0,0,0,0,0,0,-99,5,0,0,0,230,39,1,1,2,2,28.442928,2,5,149,180,.40268457,.99333334,30,4,4,0,0,0,0,1,0,0,0,1,In-Group,1,1,0,30,30,,,,72.25,1,0,0,In-Group
4,4,1,140610_0932,4,1,0,0,4,Sender,4,1,1,1,1,200,35,2,3,2,3,30,1,4,30,1,4,0,0,0,-99,2,0,0,0,260,44,1,1,2,2,28.442928,2,5,149,180,.40268457,.99333334,0,4,4,0,0,0,1,0,0,0,1,0,Group,1,1,0,,,,,,72.25,0,1,1,Baseline
4,4,2,140610_0932,4,1,0,0,4,Sender,4,1,1,1,1,200,35,2,3,4,3,30,1,4,30,1,4,0,0,0,-99,2,0,0,0,260,44,1,1,2,2,28.442928,2,5,149,180,.40268457,.99333334,0,4,4,0,0,1,0,0,0,0,1,0,Group,1,1,0,,,,,,72.25,0,0,0,Group
4,5,1,140610_0932,4,1,0,0,4,Sender,4,1,1,1,5,200,69,2,3,2,2,30,1,4,30,1,4,0,0,0,-99,6,0,0,0,260,44,1,1,2,2,28.442928,2,5,149,180,.40268457,.99333334,68,4,4,0,1,0,0,0,0,1,0,0,Direct,1,1,0,68,,,,,72.25,1,1,1,Baseline
4,5,2,140610_0932,4,1,0,0,4,Sender,4,1,1,1,5,200,1,2,3,4,4,30,1,4,30,1,4,0,0,0,-99,6,0,0,0,260,44,1,1,2,2,28.442928,2,5,149,180,.40268457,.99333334,68,4,4,1,0,0,0,0,0,1,0,0,Direct,1,1,0,68,,,,,72.25,1,0,0,Direct
4,6,1,140610_0932,4,1,0,0,4,Sender,4,1,1,1,3,200,35,2,3,2,1,35,5,4,30,1,4,185,111.666666666667,0,-99,4,170,0,0,430,72,1,1,2,2,28.442928,2,5,149,180,.40268457,.99333334,0,4,4,0,0,0,0,0,0,0,0,0,Baseline,1,1,0,,,,,,72.25,0,1,0,Baseline
4,6,2,140610_0932,4,1,0,0,4,Sender,4,1,1,1,3,200,35,2,3,5,4,35,5,4,30,1,4,185,111.666666666667,0,-99,4,170,0,0,430,72,1,1,2,2,28.442928,2,5,149,180,.40268457,.99333334,0,4,4,0,0,0,0,0,0,0,0,0,Baseline,1,1,0,,,,,,72.25,0,1,0,Baseline
5,1,1,140610_0932,5,2,0,0,5,Sender,1,4,2,2,1,250,35,3,1,4,1,35,1,2,0,0,0,0,0,0,-99,3,0,0,0,305,51,1,2,4,3,48.532295,2,4.1999998,150,200,.44444445,1,0,5,1,0,0,0,0,0,0,0,0,0,Baseline,1,1,0,,,70,25,,97.5,0,1,0,Baseline
5,1,2,140610_0932,5,2,0,0,5,Sender,1,4,2,2,1,250,35,3,1,1,2,35,1,2,0,0,0,0,0,0,-99,3,0,0,0,305,51,1,2,4,3,48.532295,2,4.1999998,150,200,.44444445,1,0,5,1,0,0,0,0,0,0,0,0,0,Baseline,1,1,0,,,70,25,,97.5,0,1,0,Baseline
5,2,1,140610_0932,5,2,0,0,5,Sender,1,4,2,2,5,200,70,3,1,4,3,30,2,1,0,0,0,0,0,0,-99,2,0,0,0,255,43,1,2,4,3,48.532295,2,4.1999998,150,200,.44444445,1,70,5,1,0,0,0,0,0,0,0,0,0,Baseline,1,1,0,35,,,,,97.5,0,1,0,Baseline
5,2,2,140610_0932,5,2,0,0,5,Sender,1,4,2,2,5,200,0,3,1,1,3,30,2,1,0,0,0,0,0,0,-99,2,0,0,0,255,43,1,2,4,3,48.532295,2,4.1999998,150,200,.44444445,1,70,5,1,0,0,0,0,0,0,0,0,0,Baseline,1,1,0,35,,,,,97.5,0,1,0,Baseline
5,3,1,140610_0932,5,2,0,0,5,Sender,1,4,2,1,1,200,70,2,3,5,4,35,5,4,35,1,2,0,0,0,-99,5,0,0,0,290,49,1,2,4,3,48.532295,2,4.1999998,150,200,.44444445,1,70,5,1,0,0,1,0,0,0,0,1,0,Group,1,1,0,,,,,,97.5,0,0,0,Group
5,3,2,140610_0932,5,2,0,0,5,Sender,1,4,2,1,1,200,0,2,3,6,1,35,5,4,35,1,2,0,0,0,-99,5,0,0,0,290,49,1,2,4,3,48.532295,2,4.1999998,150,200,.44444445,1,70,5,1,0,0,0,1,0,0,0,1,0,Group,1,1,0,,,,,,97.5,0,1,1,Baseline
5,4,1,140610_0932,5,2,0,0,5,Sender,1,4,2,2,6,200,70,3,1,5,1,35,1,2,30,2,1,0,0,0,-99,5,0,0,0,285,48,1,2,4,3,48.532295,2,4.1999998,150,200,.44444445,1,70,5,1,1,0,0,0,0,0,1,0,0,Direct,1,1,0,70,,,,,97.5,1,0,0,Direct
5,4,2,140610_0932,5,2,0,0,5,Sender,1,4,2,2,6,200,0,3,1,1,2,35,1,2,30,2,1,0,0,0,-99,5,0,0,0,285,48,1,2,4,3,48.532295,2,4.1999998,150,200,.44444445,1,70,5,1,0,1,0,0,0,0,1,0,0,Direct,1,1,0,70,,,,,97.5,1,1,1,Baseline
5,5,1,140610_0932,5,2,0,0,5,Sender,1,4,2,1,8,200,70,2,3,2,3,30,2,1,30,2,1,0,0,0,-99,4,0,0,0,285,48,1,2,4,3,48.532295,2,4.1999998,150,200,.44444445,1,70,5,1,0,0,0,0,1,0,0,0,1,In-Group,1,1,0,70,70,,,,97.5,1,0,0,In-Group
5,5,2,140610_0932,5,2,0,0,5,Sender,1,4,2,1,8,200,0,2,3,6,3,30,2,1,30,2,1,0,0,0,-99,4,0,0,0,285,48,1,2,4,3,48.532295,2,4.1999998,150,200,.44444445,1,70,5,1,0,0,0,0,0,1,0,0,1,In-Group,1,1,0,70,70,,,,97.5,1,1,1,Baseline
5,6,1,140610_0932,5,2,0,0,5,Sender,1,4,2,2,3,200,0,3,1,5,4,35,5,4,30,2,1,151.666666666667,168.333333333333,0,-99,5,100,200,100,385,65,1,2,4,3,48.532295,2,4.1999998,150,200,.44444445,1,70,5,1,0,0,1,0,0,0,0,1,0,Group,1,1,0,70,,,,,97.5,0,0,0,Group
5,6,2,140610_0932,5,2,0,0,5,Sender,1,4,2,2,3,200,70,3,1,1,4,35,5,4,30,2,1,151.666666666667,168.333333333333,0,-99,5,100,200,100,385,65,1,2,4,3,48.532295,2,4.1999998,150,200,.44444445,1,70,5,1,0,0,0,1,0,0,0,1,0,Group,1,1,0,70,,,,,97.5,0,1,1,Baseline
6,1,1,140610_0932,6,2,0,0,6,Sender,2,4,1,1,5,191,30,2,3,5,2,30,2,2,0,0,0,0,0,0,-99,3,0,0,0,246,41,1,2,4,3,21.59531,3,3.8,10,1,.033333335,.06666667,10,5,2,1,0,0,0,0,0,1,0,0,Direct,1,1,0,10,,0,25,,97.5,1,0,0,Direct
6,1,2,140610_0932,6,2,0,0,6,Sender,2,4,1,1,5,191,40,2,3,6,1,30,2,2,0,0,0,0,0,0,-99,3,0,0,0,246,41,1,2,4,3,21.59531,3,3.8,10,1,.033333335,.06666667,10,5,2,0,1,0,0,0,0,1,0,0,Direct,1,1,0,10,,0,25,,97.5,1,1,1,Baseline
6,2,1,140610_0932,6,2,0,0,6,Sender,2,4,1,1,8,200,35,2,3,2,4,50,2,4,0,0,0,0,0,0,-99,2,0,0,0,255,43,1,2,4,3,21.59531,3,3.8,10,1,.033333335,.06666667,0,5,2,0,0,0,0,1,0,0,0,1,In-Group,1,1,0,0,0,,,,97.5,1,0,0,In-Group
6,2,2,140610_0932,6,2,0,0,6,Sender,2,4,1,1,8,200,35,2,3,6,4,50,2,4,0,0,0,0,0,0,-99,2,0,0,0,255,43,1,2,4,3,21.59531,3,3.8,10,1,.033333335,.06666667,0,5,2,0,0,0,0,0,1,0,0,1,In-Group,1,1,0,0,0,,,,97.5,1,1,1,Baseline
6,3,1,140610_0932,6,2,0,0,6,Sender,2,4,1,2,3,200,35,3,1,5,3,30,2,2,30,2,2,0,0,0,-99,5,0,0,0,285,48,1,2,4,3,21.59531,3,3.8,10,1,.033333335,.06666667,0,5,2,0,0,1,0,0,0,0,1,0,Group,1,1,0,0,,,,,97.5,0,0,0,Group
6,3,2,140610_0932,6,2,0,0,6,Sender,2,4,1,2,3,200,35,3,1,1,3,30,2,2,30,2,2,0,0,0,-99,5,0,0,0,285,48,1,2,4,3,21.59531,3,3.8,10,1,.033333335,.06666667,0,5,2,0,0,0,1,0,0,0,1,0,Group,1,1,0,0,,,,,97.5,0,1,1,Baseline
6,4,1,140610_0932,6,2,0,0,6,Sender,2,4,1,1,8,200,35,2,3,4,1,30,2,2,30,2,2,0,0,0,-99,5,0,0,0,285,48,1,2,4,3,21.59531,3,3.8,10,1,.033333335,.06666667,0,5,2,0,0,0,0,0,0,0,0,0,Baseline,1,1,0,,,,,,97.5,0,1,0,Baseline
6,4,2,140610_0932,6,2,0,0,6,Sender,2,4,1,1,8,200,35,2,3,4,2,30,2,2,30,2,2,0,0,0,-99,5,0,0,0,285,48,1,2,4,3,21.59531,3,3.8,10,1,.033333335,.06666667,0,5,2,0,0,0,0,0,0,0,0,0,Baseline,1,1,0,,,,,,97.5,0,1,0,Baseline
6,5,1,140610_0932,6,2,0,0,6,Sender,2,4,1,2,5,200,35,3,1,4,4,69,1,4,50,2,4,0,0,0,-99,4,0,0,0,305,51,1,2,4,3,21.59531,3,3.8,10,1,.033333335,.06666667,0,5,2,0,0,0,0,0,0,0,0,0,Baseline,1,1,0,0,,,,,97.5,0,1,0,Baseline
6,5,2,140610_0932,6,2,0,0,6,Sender,2,4,1,2,5,200,35,3,1,1,4,69,1,4,50,2,4,0,0,0,-99,4,0,0,0,305,51,1,2,4,3,21.59531,3,3.8,10,1,.033333335,.06666667,0,5,2,0,0,0,0,0,0,0,0,0,Baseline,1,1,0,0,,,,,97.5,0,1,0,Baseline
6,6,1,140610_0932,6,2,0,0,6,Sender,2,4,1,1,1,200,35,2,3,5,3,35,6,2,30,2,2,185,88.3333333333333,0,-99,5,200,0,0,485,81,1,2,4,3,21.59531,3,3.8,10,1,.033333335,.06666667,0,5,2,0,0,1,0,0,0,0,1,0,Group,1,1,0,,,,,,97.5,0,0,0,Group
6,6,2,140610_0932,6,2,0,0,6,Sender,2,4,1,1,1,200,35,2,3,6,2,35,6,2,30,2,2,185,88.3333333333333,0,-99,5,200,0,0,485,81,1,2,4,3,21.59531,3,3.8,10,1,.033333335,.06666667,0,5,2,0,0,0,1,0,0,0,1,0,Group,1,1,0,,,,,,97.5,0,1,1,Baseline
7,1,1,140610_0932,7,2,0,0,7,Sender,3,3,2,2,6,210,25,3,1,5,3,35,1,4,0,0,0,0,0,0,-99,3,0,0,0,255,43,1,2,3,3,35.31646,2,5,80,90,.375,.53333336,20,5,3,1,0,0,0,0,0,1,0,0,Direct,1,1,0,20,,0,25,,97.5,1,0,0,Direct
7,1,2,140610_0932,7,2,0,0,7,Sender,3,3,2,2,6,210,45,3,1,1,4,35,1,4,0,0,0,0,0,0,-99,3,0,0,0,255,43,1,2,3,3,35.31646,2,5,80,90,.375,.53333336,20,5,3,0,1,0,0,0,0,1,0,0,Direct,1,1,0,20,,0,25,,97.5,1,1,1,Baseline
7,2,1,140610_0932,7,2,0,0,7,Sender,3,3,2,1,2,200,35,2,3,3,1,35,3,1,0,0,0,0,0,0,-99,2,0,0,0,245,41,1,2,3,3,35.31646,2,5,80,90,.375,.53333336,0,5,3,0,0,0,0,0,0,0,0,0,Baseline,1,1,0,,,,,,97.5,0,1,0,Baseline
7,2,2,140610_0932,7,2,0,0,7,Sender,3,3,2,1,2,200,35,2,3,6,3,35,3,1,0,0,0,0,0,0,-99,2,0,0,0,245,41,1,2,3,3,35.31646,2,5,80,90,.375,.53333336,0,5,3,0,0,0,0,0,0,0,0,0,Baseline,1,1,0,,,,,,97.5,0,1,0,Baseline
7,3,1,140610_0932,7,2,0,0,7,Sender,3,3,2,1,4,200,35,2,3,3,2,35,3,2,35,3,2,0,0,0,-99,5,0,0,0,280,47,1,2,3,3,35.31646,2,5,80,90,.375,.53333336,0,5,3,0,0,0,1,0,0,0,1,0,Group,1,1,0,,,,,,97.5,0,1,1,Baseline
7,3,2,140610_0932,7,2,0,0,7,Sender,3,3,2,1,4,200,35,2,3,5,2,35,3,2,35,3,2,0,0,0,-99,5,0,0,0,280,47,1,2,3,3,35.31646,2,5,80,90,.375,.53333336,0,5,3,0,0,1,0,0,0,0,1,0,Group,1,1,0,,,,,,97.5,0,0,0,Group
7,4,1,140610_0932,7,2,0,0,7,Sender,3,3,2,2,1,200,35,3,1,4,3,35,1,4,35,1,4,0,0,0,-99,5,0,0,0,280,47,1,2,3,3,35.31646,2,5,80,90,.375,.53333336,0,5,3,0,0,0,0,0,0,0,0,0,Baseline,1,1,0,0,,,,,97.5,0,1,0,Baseline
7,4,2,140610_0932,7,2,0,0,7,Sender,3,3,2,2,1,200,35,3,1,1,4,35,1,4,35,1,4,0,0,0,-99,5,0,0,0,280,47,1,2,3,3,35.31646,2,5,80,90,.375,.53333336,0,5,3,0,0,0,0,0,0,0,0,0,Baseline,1,1,0,0,,,,,97.5,0,1,0,Baseline
7,5,1,140610_0932,7,2,0,0,7,Sender,3,3,2,2,8,200,35,3,1,6,3,70,2,1,35,3,1,0,0,0,-99,4,0,0,0,280,47,1,2,3,3,35.31646,2,5,80,90,.375,.53333336,0,5,3,0,0,0,0,0,1,0,0,1,In-Group,1,1,0,0,0,,,,97.5,1,1,1,Baseline
7,5,2,140610_0932,7,2,0,0,7,Sender,3,3,2,2,8,200,35,3,1,2,1,70,2,1,35,3,1,0,0,0,-99,4,0,0,0,280,47,1,2,3,3,35.31646,2,5,80,90,.375,.53333336,0,5,3,0,0,0,0,1,0,0,0,1,In-Group,1,1,0,0,0,,,,97.5,1,0,0,In-Group
7,6,1,140610_0932,7,2,0,0,7,Sender,3,3,2,1,2,200,35,2,3,4,3,35,5,2,35,3,2,176.5,132.333333333333,0,-99,5,113,188,113,393,66,1,2,3,3,35.31646,2,5,80,90,.375,.53333336,0,5,3,0,0,0,1,0,0,0,1,0,Group,1,1,0,0,,,,,97.5,0,1,1,Baseline
7,6,2,140610_0932,7,2,0,0,7,Sender,3,3,2,1,2,200,35,2,3,5,2,35,5,2,35,3,2,176.5,132.333333333333,0,-99,5,113,188,113,393,66,1,2,3,3,35.31646,2,5,80,90,.375,.53333336,0,5,3,0,0,1,0,0,0,0,1,0,Group,1,1,0,0,,,,,97.5,0,0,0,Group
8,1,1,140610_0932,8,2,0,0,8,Sender,4,3,1,1,8,150,35,2,3,4,3,30,2,4,0,0,0,0,0,0,-99,3,0,0,0,205,35,1,2,4,3,36.78759,2,5.1999998,150,100,.22222222,1,0,5,4,0,0,0,0,0,0,0,0,0,Baseline,1,1,0,,,30,25,,97.5,0,1,0,Baseline
8,1,2,140610_0932,8,2,0,0,8,Sender,4,3,1,1,8,150,35,2,3,4,4,30,2,4,0,0,0,0,0,0,-99,3,0,0,0,205,35,1,2,4,3,36.78759,2,5.1999998,150,100,.22222222,1,0,5,4,0,0,0,0,0,0,0,0,0,Baseline,1,1,0,,,30,25,,97.5,0,1,0,Baseline
8,2,1,140610_0932,8,2,0,0,8,Sender,4,3,1,2,8,200,20,3,1,6,4,30,2,4,30,2,4,0,0,0,-99,2,0,0,0,285,48,1,2,4,3,36.78759,2,5.1999998,150,100,.22222222,1,30,5,4,0,0,0,0,0,1,0,0,1,In-Group,1,1,0,30,30,,,,97.5,1,1,1,Baseline
8,2,2,140610_0932,8,2,0,0,8,Sender,4,3,1,2,8,200,50,3,1,2,2,30,2,4,30,2,4,0,0,0,-99,2,0,0,0,285,48,1,2,4,3,36.78759,2,5.1999998,150,100,.22222222,1,30,5,4,0,0,0,0,1,0,0,0,1,In-Group,1,1,0,30,30,,,,97.5,1,0,0,In-Group
8,3,1,140610_0932,8,2,0,0,8,Sender,4,3,1,1,2,200,35,2,3,4,4,36,4,4,36,4,4,0,0,0,-99,5,0,0,0,291,49,1,2,4,3,36.78759,2,5.1999998,150,100,.22222222,1,0,5,4,0,0,0,1,0,0,0,1,0,Group,1,1,0,0,,,,,97.5,0,1,1,Baseline
8,3,2,140610_0932,8,2,0,0,8,Sender,4,3,1,1,2,200,35,2,3,5,1,36,4,4,36,4,4,0,0,0,-99,5,0,0,0,291,49,1,2,4,3,36.78759,2,5.1999998,150,100,.22222222,1,0,5,4,0,0,1,0,0,0,0,1,0,Group,1,1,0,0,,,,,97.5,0,0,0,Group
8,4,1,140610_0932,8,2,0,0,8,Sender,4,3,1,1,5,200,1,2,3,5,4,30,2,4,30,2,4,0,0,0,-99,5,0,0,0,285,48,1,2,4,3,36.78759,2,5.1999998,150,100,.22222222,1,68,5,4,1,0,0,0,0,0,1,0,0,Direct,1,1,0,68,,,,,97.5,1,0,0,Direct
8,4,2,140610_0932,8,2,0,0,8,Sender,4,3,1,1,5,200,69,2,3,6,3,30,2,4,30,2,4,0,0,0,-99,5,0,0,0,285,48,1,2,4,3,36.78759,2,5.1999998,150,100,.22222222,1,68,5,4,0,1,0,0,0,0,1,0,0,Direct,1,1,0,68,,,,,97.5,1,1,1,Baseline
8,5,1,140610_0932,8,2,0,0,8,Sender,4,3,1,1,2,200,35,2,3,3,2,30,2,4,30,2,4,0,0,0,-99,4,0,0,0,285,48,1,2,4,3,36.78759,2,5.1999998,150,100,.22222222,1,0,5,4,0,0,0,0,0,0,0,0,0,Baseline,1,1,0,0,,,,,97.5,0,1,0,Baseline
8,5,2,140610_0932,8,2,0,0,8,Sender,4,3,1,1,2,200,35,2,3,6,4,30,2,4,30,2,4,0,0,0,-99,4,0,0,0,285,48,1,2,4,3,36.78759,2,5.1999998,150,100,.22222222,1,0,5,4,0,0,0,0,0,0,0,0,0,Baseline,1,1,0,0,,,,,97.5,0,1,0,Baseline
8,6,1,140610_0932,8,2,0,0,8,Sender,4,3,1,1,4,200,35,2,3,3,1,35,5,1,30,2,4,173.666666666667,136.166666666667,0,-99,5,188,0,0,473,79,1,2,4,3,36.78759,2,5.1999998,150,100,.22222222,1,0,5,4,0,0,0,1,0,0,0,1,0,Group,1,1,0,,,,,,97.5,0,1,1,Baseline
8,6,2,140610_0932,8,2,0,0,8,Sender,4,3,1,1,4,200,35,2,3,5,1,35,5,1,30,2,4,173.666666666667,136.166666666667,0,-99,5,188,0,0,473,79,1,2,4,3,36.78759,2,5.1999998,150,100,.22222222,1,0,5,4,0,0,1,0,0,0,0,1,0,Group,1,1,0,,,,,,97.5,0,0,0,Group
9,1,1,140610_0932,9,3,0,0,9,Sender,1,6,2,1,7,191,35,2,3,3,2,30,3,1,0,0,0,0,0,0,-99,6,0,0,0,211,36,1,3,2,0,29.446163,2,4.4000001,10,1,.033333335,.06666667,0,6,1,0,0,0,0,1,0,0,0,1,In-Group,1,1,0,0,0,0,7.5,,90,1,0,0,In-Group
9,1,2,140610_0932,9,3,0,0,9,Sender,1,6,2,1,7,191,35,2,3,5,1,30,3,1,0,0,0,0,0,0,-99,6,0,0,0,211,36,1,3,2,0,29.446163,2,4.4000001,10,1,.033333335,.06666667,0,6,1,0,0,0,0,0,1,0,0,1,In-Group,1,1,0,0,0,0,7.5,,90,1,1,1,Baseline
9,2,1,140610_0932,9,3,0,0,9,Sender,1,6,2,2,2,200,35,3,1,6,3,30,3,1,0,0,0,0,0,0,-99,3,0,0,0,220,37,1,3,2,0,29.446163,2,4.4000001,10,1,.033333335,.06666667,0,6,1,0,0,1,0,0,0,0,1,0,Group,1,1,0,,,,,,90,0,0,0,Group
9,2,2,140610_0932,9,3,0,0,9,Sender,1,6,2,2,2,200,35,3,1,2,3,30,3,1,0,0,0,0,0,0,-99,3,0,0,0,220,37,1,3,2,0,29.446163,2,4.4000001,10,1,.033333335,.06666667,0,6,1,0,0,0,1,0,0,0,1,0,Group,1,1,0,,,,,,90,0,1,1,Baseline
9,3,1,140610_0932,9,3,0,0,9,Sender,1,6,2,3,7,200,35,1,2,1,1,20,1,4,20,1,4,0,0,0,-99,6,0,0,0,240,40,1,3,2,0,29.446163,2,4.4000001,10,1,.033333335,.06666667,0,6,1,0,0,0,0,0,0,0,0,0,Baseline,1,1,0,,,,,,90,0,1,0,Baseline
9,3,2,140610_0932,9,3,0,0,9,Sender,1,6,2,3,7,200,35,1,2,1,4,20,1,4,20,1,4,0,0,0,-99,6,0,0,0,240,40,1,3,2,0,29.446163,2,4.4000001,10,1,.033333335,.06666667,0,6,1,0,0,0,0,0,0,0,0,0,Baseline,1,1,0,,,,,,90,0,1,0,Baseline
9,4,1,140610_0932,9,3,0,0,9,Sender,1,6,2,2,4,200,30,3,1,6,2,35,1,1,0,0,0,0,0,0,-99,6,0,0,0,220,37,1,3,2,0,29.446163,2,4.4000001,10,1,.033333335,.06666667,10,6,1,0,0,1,0,0,0,0,1,0,Group,1,1,0,5,,,,,90,0,0,0,Group
9,4,2,140610_0932,9,3,0,0,9,Sender,1,6,2,2,4,200,40,3,1,1,1,35,1,1,0,0,0,0,0,0,-99,6,0,0,0,220,37,1,3,2,0,29.446163,2,4.4000001,10,1,.033333335,.06666667,10,6,1,0,0,0,1,0,0,0,1,0,Group,1,1,0,5,,,,,90,0,1,1,Baseline
9,5,1,140610_0932,9,3,0,0,9,Sender,1,6,2,1,6,200,35,2,3,5,3,30,3,1,35,1,1,0,0,0,-99,3,0,0,0,255,43,1,3,2,0,29.446163,2,4.4000001,10,1,.033333335,.06666667,0,6,1,0,1,0,0,0,0,1,0,0,Direct,1,1,0,0,,,,,90,1,1,1,Baseline
9,5,2,140610_0932,9,3,0,0,9,Sender,1,6,2,1,6,200,35,2,3,6,1,30,3,1,35,1,1,0,0,0,-99,3,0,0,0,255,43,1,3,2,0,29.446163,2,4.4000001,10,1,.033333335,.06666667,0,6,1,1,0,0,0,0,0,1,0,0,Direct,1,1,0,0,,,,,90,1,0,0,Direct
9,6,1,140610_0932,9,3,0,0,9,Sender,1,6,2,2,4,200,35,3,1,5,1,35,5,1,20,1,4,183.833333333333,114.666666666667,0,-99,1,170,170,170,410,69,1,3,2,0,29.446163,2,4.4000001,10,1,.033333335,.06666667,0,6,1,0,0,0,0,0,0,0,0,0,Baseline,1,1,0,0,,,,,90,0,1,0,Baseline
9,6,2,140610_0932,9,3,0,0,9,Sender,1,6,2,2,4,200,35,3,1,2,4,35,5,1,20,1,4,183.833333333333,114.666666666667,0,-99,1,170,170,170,410,69,1,3,2,0,29.446163,2,4.4000001,10,1,.033333335,.06666667,0,6,1,0,0,0,0,0,0,0,0,0,Baseline,1,1,0,0,,,,,90,0,1,0,Baseline
10,1,1,140610_0932,10,3,0,0,10,Sender,2,6,1,2,7,275,20,3,1,5,1,35,3,1,0,0,0,0,0,0,-99,6,0,0,0,285,48,1,3,1,0,35.767391,2,5,150,225,.5,1,30,6,2,0,0,0,0,0,1,0,0,1,In-Group,1,1,0,30,30,30,7.5,,90,1,1,1,Baseline
10,1,2,140610_0932,10,3,0,0,10,Sender,2,6,1,2,7,275,50,3,1,3,1,35,3,1,0,0,0,0,0,0,-99,6,0,0,0,285,48,1,3,1,0,35.767391,2,5,150,225,.5,1,30,6,2,0,0,0,0,1,0,0,0,1,In-Group,1,1,0,30,30,30,7.5,,90,1,0,0,In-Group
10,2,1,140610_0932,10,3,0,0,10,Sender,2,6,1,1,6,200,25,2,3,5,4,35,5,4,35,3,1,0,0,0,-99,3,0,0,0,245,41,1,3,1,0,35.767391,2,5,150,225,.5,1,20,6,2,0,1,0,0,0,0,1,0,0,Direct,1,1,0,20,,,,,90,1,1,1,Baseline
10,2,2,140610_0932,10,3,0,0,10,Sender,2,6,1,1,6,200,45,2,3,6,2,35,5,4,35,3,1,0,0,0,-99,3,0,0,0,245,41,1,3,1,0,35.767391,2,5,150,225,.5,1,20,6,2,1,0,0,0,0,0,1,0,0,Direct,1,1,0,20,,,,,90,1,0,0,Direct
10,3,1,140610_0932,10,3,0,0,10,Sender,2,6,1,2,4,200,35,3,1,5,2,30,3,2,0,0,0,0,0,0,-99,6,0,0,0,210,35,1,3,1,0,35.767391,2,5,150,225,.5,1,0,6,2,0,0,0,0,0,0,0,0,0,Baseline,1,1,0,5,,,,,90,0,1,0,Baseline
10,3,2,140610_0932,10,3,0,0,10,Sender,2,6,1,2,4,200,35,3,1,2,3,30,3,2,0,0,0,0,0,0,-99,6,0,0,0,210,35,1,3,1,0,35.767391,2,5,150,225,.5,1,0,6,2,0,0,0,0,0,0,0,0,0,Baseline,1,1,0,5,,,,,90,0,1,0,Baseline
10,4,1,140610_0932,10,3,0,0,10,Sender,2,6,1,1,3,200,30,2,3,0,0,30,3,2,35,3,1,0,0,0,-99,6,0,0,0,245,41,1,3,1,0,35.767391,2,5,150,225,.5,1,10,6,2,0,0,0,1,0,0,0,1,0,Group,1,1,0,10,,,,,90,0,1,1,Baseline
10,4,2,140610_0932,10,3,0,0,10,Sender,2,6,1,1,3,200,40,2,3,6,1,30,3,2,35,3,1,0,0,0,-99,6,0,0,0,245,41,1,3,1,0,35.767391,2,5,150,225,.5,1,10,6,2,0,0,1,0,0,0,0,1,0,Group,1,1,0,10,,,,,90,0,0,0,Group
10,5,1,140610_0932,10,3,0,0,10,Sender,2,6,1,2,2,200,30,3,1,6,4,35,2,4,35,2,4,0,0,0,-99,3,0,0,0,245,41,1,3,1,0,35.767391,2,5,150,225,.5,1,10,6,2,0,0,1,0,0,0,0,1,0,Group,1,1,0,,,,,,90,0,0,0,Group
10,5,2,140610_0932,10,3,0,0,10,Sender,2,6,1,2,2,200,40,3,1,2,4,35,2,4,35,2,4,0,0,0,-99,3,0,0,0,245,41,1,3,1,0,35.767391,2,5,150,225,.5,1,10,6,2,0,0,0,1,0,0,0,1,0,Group,1,1,0,,,,,,90,0,1,1,Baseline
10,6,1,140610_0932,10,3,0,0,10,Sender,2,6,1,3,7,200,30,1,2,1,2,30,3,2,35,3,1,174,132.333333333333,0,-99,1,170,0,0,415,70,1,3,1,0,35.767391,2,5,150,225,.5,1,10,6,2,0,0,0,0,0,0,0,0,0,Baseline,1,1,0,,,,,,90,0,1,0,Baseline
10,6,2,140610_0932,10,3,0,0,10,Sender,2,6,1,3,7,200,40,1,2,1,3,30,3,2,35,3,1,174,132.333333333333,0,-99,1,170,0,0,415,70,1,3,1,0,35.767391,2,5,150,225,.5,1,10,6,2,0,0,0,0,0,0,0,0,0,Baseline,1,1,0,,,,,,90,0,1,0,Baseline
11,1,1,140610_0932,11,3,0,0,11,Sender,3,5,2,2,4,175,35,3,1,6,4,40,1,3,0,0,0,0,0,0,-99,6,0,0,0,195,33,1,3,2,0,32.391392,2,5.5999999,50,25,.16666667,.33333334,0,6,3,0,0,1,0,0,0,0,1,0,Group,1,1,0,0,,0,7.5,,90,0,0,0,Group
11,1,2,140610_0932,11,3,0,0,11,Sender,3,5,2,2,4,175,35,3,1,1,3,40,1,3,0,0,0,0,0,0,-99,6,0,0,0,195,33,1,3,2,0,32.391392,2,5.5999999,50,25,.16666667,.33333334,0,6,3,0,0,0,1,0,0,0,1,0,Group,1,1,0,0,,0,7.5,,90,0,1,1,Baseline
11,2,1,140610_0932,11,3,0,0,11,Sender,3,5,2,1,1,200,35,2,3,4,1,35,4,1,0,0,0,0,0,0,-99,3,0,0,0,220,37,1,3,2,0,32.391392,2,5.5999999,50,25,.16666667,.33333334,0,6,3,0,0,0,1,0,0,0,1,0,Group,1,1,0,,,,,,90,0,1,1,Baseline
11,2,2,140610_0932,11,3,0,0,11,Sender,3,5,2,1,1,200,35,2,3,6,1,35,4,1,0,0,0,0,0,0,-99,3,0,0,0,220,37,1,3,2,0,32.391392,2,5.5999999,50,25,.16666667,.33333334,0,6,3,0,0,1,0,0,0,0,1,0,Group,1,1,0,,,,,,90,0,0,0,Group
11,3,1,140610_0932,11,3,0,0,11,Sender,3,5,2,2,6,200,35,3,1,4,2,30,3,3,30,3,3,0,0,0,-99,6,0,0,0,250,42,1,3,2,0,32.391392,2,5.5999999,50,25,.16666667,.33333334,0,6,3,0,0,0,0,0,0,0,0,0,Baseline,1,1,0,,,,,,90,0,1,0,Baseline
11,3,2,140610_0932,11,3,0,0,11,Sender,3,5,2,2,6,200,35,3,1,1,2,30,3,3,30,3,3,0,0,0,-99,6,0,0,0,250,42,1,3,2,0,32.391392,2,5.5999999,50,25,.16666667,.33333334,0,6,3,0,0,0,0,0,0,0,0,0,Baseline,1,1,0,,,,,,90,0,1,0,Baseline
11,4,1,140610_0932,11,3,0,0,11,Sender,3,5,2,1,7,200,35,2,3,3,4,30,3,3,40,1,3,0,0,0,-99,6,0,0,0,260,44,1,3,2,0,32.391392,2,5.5999999,50,25,.16666667,.33333334,0,6,3,0,0,0,0,1,0,0,0,1,In-Group,1,1,0,0,0,,,,90,1,0,0,In-Group
11,4,2,140610_0932,11,3,0,0,11,Sender,3,5,2,1,7,200,35,2,3,5,3,30,3,3,40,1,3,0,0,0,-99,6,0,0,0,260,44,1,3,2,0,32.391392,2,5.5999999,50,25,.16666667,.33333334,0,6,3,0,0,0,0,0,1,0,0,1,In-Group,1,1,0,0,0,,,,90,1,1,1,Baseline
11,5,1,140610_0932,11,3,0,0,11,Sender,3,5,2,2,3,200,35,3,1,4,1,70,1,3,30,3,3,0,0,0,-99,3,0,0,0,250,42,1,3,2,0,32.391392,2,5.5999999,50,25,.16666667,.33333334,0,6,3,0,0,0,0,0,0,0,0,0,Baseline,1,1,0,0,,,,,90,0,1,0,Baseline
11,5,2,140610_0932,11,3,0,0,11,Sender,3,5,2,2,3,200,35,3,1,1,3,70,1,3,30,3,3,0,0,0,-99,3,0,0,0,250,42,1,3,2,0,32.391392,2,5.5999999,50,25,.16666667,.33333334,0,6,3,0,0,0,0,0,0,0,0,0,Baseline,1,1,0,0,,,,,90,0,1,0,Baseline
11,6,1,140610_0932,11,3,0,0,11,Sender,3,5,2,1,5,200,35,2,3,4,2,35,6,3,70,1,3,180,123.333333333333,0,-99,1,170,170,170,460,77,1,3,2,0,32.391392,2,5.5999999,50,25,.16666667,.33333334,0,6,3,0,1,0,0,0,0,1,0,0,Direct,1,1,0,0,,,,,90,1,1,1,Baseline
11,6,2,140610_0932,11,3,0,0,11,Sender,3,5,2,1,5,200,35,2,3,6,3,35,6,3,70,1,3,180,123.333333333333,0,-99,1,170,170,170,460,77,1,3,2,0,32.391392,2,5.5999999,50,25,.16666667,.33333334,0,6,3,1,0,0,0,0,0,1,0,0,Direct,1,1,0,0,,,,,90,1,0,0,Direct
12,1,1,140610_0932,12,3,0,0,12,Sender,4,5,1,1,3,275,35,2,3,5,4,30,3,4,0,0,0,0,0,0,-99,6,0,0,0,295,50,1,3,2,0,40.629204,2,5.4000001,150,225,.5,1,0,6,4,0,0,0,1,0,0,0,1,0,Group,1,1,0,0,,0,7.5,,90,0,1,1,Baseline
12,1,2,140610_0932,12,3,0,0,12,Sender,4,5,1,1,3,275,35,2,3,6,3,30,3,4,0,0,0,0,0,0,-99,6,0,0,0,295,50,1,3,2,0,40.629204,2,5.4000001,150,225,.5,1,0,6,4,0,0,1,0,0,0,0,1,0,Group,1,1,0,0,,0,7.5,,90,0,0,0,Group
12,2,1,140610_0932,12,3,0,0,12,Sender,4,5,1,2,3,200,35,3,1,4,2,30,3,4,0,0,0,0,0,0,-99,3,0,0,0,220,37,1,3,2,0,40.629204,2,5.4000001,150,225,.5,1,0,6,4,0,0,0,0,0,0,0,0,0,Baseline,1,1,0,0,,,,,90,0,1,0,Baseline
12,2,2,140610_0932,12,3,0,0,12,Sender,4,5,1,2,3,200,35,3,1,1,4,30,3,4,0,0,0,0,0,0,-99,3,0,0,0,220,37,1,3,2,0,40.629204,2,5.4000001,150,225,.5,1,0,6,4,0,0,0,0,0,0,0,0,0,Baseline,1,1,0,0,,,,,90,0,1,0,Baseline
12,3,1,140610_0932,12,3,0,0,12,Sender,4,5,1,1,5,200,35,2,3,4,1,50,4,1,0,0,0,0,0,0,-99,6,0,0,0,220,37,1,3,2,0,40.629204,2,5.4000001,150,225,.5,1,0,6,4,0,1,0,0,0,0,1,0,0,Direct,1,1,0,0,,,,,90,1,1,1,Baseline
12,3,2,140610_0932,12,3,0,0,12,Sender,4,5,1,1,5,200,35,2,3,6,4,50,4,1,0,0,0,0,0,0,-99,6,0,0,0,220,37,1,3,2,0,40.629204,2,5.4000001,150,225,.5,1,0,6,4,1,0,0,0,0,0,1,0,0,Direct,1,1,0,0,,,,,90,1,0,0,Direct
12,4,1,140610_0932,12,3,0,0,12,Sender,4,5,1,2,7,200,35,3,1,5,3,35,3,3,50,4,1,0,0,0,-99,6,0,0,0,270,45,1,3,2,0,40.629204,2,5.4000001,150,225,.5,1,0,6,4,0,0,0,0,0,1,0,0,1,In-Group,1,1,0,0,0,,,,90,1,1,1,Baseline
12,4,2,140610_0932,12,3,0,0,12,Sender,4,5,1,2,7,200,35,3,1,3,3,35,3,3,50,4,1,0,0,0,-99,6,0,0,0,270,45,1,3,2,0,40.629204,2,5.4000001,150,225,.5,1,0,6,4,0,0,0,0,1,0,0,0,1,In-Group,1,1,0,0,0,,,,90,1,0,0,In-Group
12,5,1,140610_0932,12,3,0,0,12,Sender,4,5,1,1,1,200,35,2,3,4,2,30,3,4,30,3,4,0,0,0,-99,3,0,0,0,250,42,1,3,2,0,40.629204,2,5.4000001,150,225,.5,1,0,6,4,0,0,0,1,0,0,0,1,0,Group,1,1,0,,,,,,90,0,1,1,Baseline
12,5,2,140610_0932,12,3,0,0,12,Sender,4,5,1,1,1,200,35,2,3,6,2,30,3,4,30,3,4,0,0,0,-99,3,0,0,0,250,42,1,3,2,0,40.629204,2,5.4000001,150,225,.5,1,0,6,4,0,0,1,0,0,0,0,1,0,Group,1,1,0,,,,,,90,0,0,0,Group
12,6,1,140610_0932,12,3,0,0,12,Sender,4,5,1,2,6,200,35,3,1,4,1,35,4,1,30,3,4,165.833333333333,145.833333333333,0,-99,1,170,0,0,420,70,1,3,2,0,40.629204,2,5.4000001,150,225,.5,1,0,6,4,0,0,0,0,0,0,0,0,0,Baseline,1,1,0,,,,,,90,0,1,0,Baseline
12,6,2,140610_0932,12,3,0,0,12,Sender,4,5,1,2,6,200,35,3,1,1,1,35,4,1,30,3,4,165.833333333333,145.833333333333,0,-99,1,170,0,0,420,70,1,3,2,0,40.629204,2,5.4000001,150,225,.5,1,0,6,4,0,0,0,0,0,0,0,0,0,Baseline,1,1,0,,,,,,90,0,1,0,Baseline
13,1,1,140610_0932,13,4,0,0,1,Responder,1,8,2,3,1,200,35,1,2,1,2,35,1,2,0,0,0,0,0,0,-99,2,0,0,0,240,40,1,4,3,2,33.00547,2,4.8000002,100,100,.33333334,.66666669,0,1,1,0,0,1,0,0,0,0,1,0,Group,0,1,1,,,50,35,.2592282,,0,0,0,Group
13,1,2,140610_0932,13,4,0,0,1,Responder,1,8,2,3,1,200,35,1,2,2,1,35,1,2,0,0,0,0,0,0,-99,2,0,0,0,240,40,1,4,3,2,33.00547,2,4.8000002,100,100,.33333334,.66666669,0,1,1,0,0,0,1,0,0,0,1,0,Group,0,1,1,,,50,35,.2592282,,0,1,1,Baseline
13,2,1,140610_0932,13,4,0,0,1,Responder,1,8,2,2,1,0,35,3,1,6,1,30,4,1,0,0,0,0,0,0,-99,1,0,0,0,40,7,1,4,3,2,33.00547,2,4.8000002,100,100,.33333334,.66666669,0,1,1,0,0,0,0,0,0,0,0,0,Baseline,0,1,1,,,,,.2592282,,0,1,0,Baseline
13,2,2,140610_0932,13,4,0,0,1,Responder,1,8,2,2,1,0,35,3,1,3,3,30,4,1,0,0,0,0,0,0,-99,1,0,0,0,40,7,1,4,3,2,33.00547,2,4.8000002,100,100,.33333334,.66666669,0,1,1,0,0,0,0,0,0,0,0,0,Baseline,0,1,1,,,,,.2592282,,0,1,0,Baseline
13,3,1,140610_0932,13,4,0,0,1,Responder,1,8,2,2,5,0,20,3,1,6,4,30,4,1,0,0,0,0,0,0,-99,3,0,0,0,40,7,1,4,3,2,33.00547,2,4.8000002,100,100,.33333334,.66666669,30,1,1,0,0,0,0,0,0,0,0,0,Baseline,0,1,1,15,,,,.2592282,,0,1,0,Baseline
13,3,2,140610_0932,13,4,0,0,1,Responder,1,8,2,2,5,0,50,3,1,3,4,30,4,1,0,0,0,0,0,0,-99,3,0,0,0,40,7,1,4,3,2,33.00547,2,4.8000002,100,100,.33333334,.66666669,30,1,1,0,0,0,0,0,0,0,0,0,Baseline,0,1,1,15,,,,.2592282,,0,1,0,Baseline
13,4,1,140610_0932,13,4,0,0,1,Responder,1,8,2,2,8,0,60,3,1,4,2,35,2,2,30,4,1,0,0,0,-99,3,0,0,0,70,12,1,4,3,2,33.00547,2,4.8000002,100,100,.33333334,.66666669,50,1,1,0,0,0,0,1,0,0,0,1,In-Group,0,1,1,50,50,,,.2592282,,1,0,0,In-Group
13,4,2,140610_0932,13,4,0,0,1,Responder,1,8,2,2,8,0,10,3,1,2,2,35,2,2,30,4,1,0,0,0,-99,3,0,0,0,70,12,1,4,3,2,33.00547,2,4.8000002,100,100,.33333334,.66666669,50,1,1,0,0,0,0,0,1,0,0,1,In-Group,0,1,1,50,50,,,.2592282,,1,1,1,Baseline
13,5,1,140610_0932,13,4,0,0,1,Responder,1,8,2,3,3,0,35,1,2,1,3,0,1,3,0,1,3,0,0,0,-99,5,0,0,0,40,7,1,4,3,2,33.00547,2,4.8000002,100,100,.33333334,.66666669,0,1,1,0,0,1,0,0,0,0,1,0,Group,0,1,1,0,,,,.2592282,,0,0,0,Group
13,5,2,140610_0932,13,4,0,0,1,Responder,1,8,2,3,3,0,35,1,2,3,3,0,1,3,0,1,3,0,0,0,-99,5,0,0,0,40,7,1,4,3,2,33.00547,2,4.8000002,100,100,.33333334,.66666669,0,1,1,0,0,0,1,0,0,0,1,0,Group,0,1,1,0,,,,.2592282,,0,1,1,Baseline
13,6,1,140610_0932,13,4,0,0,1,Responder,1,8,2,3,6,0,35,1,2,1,1,30,4,1,30,4,1,171,119.833333333333,0,-99,4,136,126,136,206,35,1,4,3,2,33.00547,2,4.8000002,100,100,.33333334,.66666669,0,1,1,1,0,0,0,0,0,1,0,0,Direct,0,1,1,0,,,,.2592282,,1,0,0,Direct
13,6,2,140610_0932,13,4,0,0,1,Responder,1,8,2,3,6,0,35,1,2,3,4,30,4,1,30,4,1,171,119.833333333333,0,-99,4,136,126,136,206,35,1,4,3,2,33.00547,2,4.8000002,100,100,.33333334,.66666669,0,1,1,0,1,0,0,0,0,1,0,0,Direct,0,1,1,0,,,,.2592282,,1,1,1,Baseline
14,1,1,140610_0932,14,4,0,0,2,Responder,2,8,1,2,2,115,35,3,1,6,2,35,1,1,0,0,0,0,0,0,-99,2,0,0,0,155,26,1,4,3,2,40.825764,2,5.4000001,40,5,.041666668,.26666668,0,1,2,0,0,0,1,0,0,0,1,0,Group,0,1,1,5,,30,35,.2592282,,0,1,1,Baseline
14,1,2,140610_0932,14,4,0,0,2,Responder,2,8,1,2,2,115,35,3,1,1,1,35,1,1,0,0,0,0,0,0,-99,2,0,0,0,155,26,1,4,3,2,40.825764,2,5.4000001,40,5,.041666668,.26666668,0,1,2,0,0,1,0,0,0,0,1,0,Group,0,1,1,5,,30,35,.2592282,,0,0,0,Group
14,2,1,140610_0932,14,4,0,0,2,Responder,2,8,1,3,3,0,40,1,2,1,4,35,3,4,0,0,0,0,0,0,-99,1,0,0,0,40,7,1,4,3,2,40.825764,2,5.4000001,40,5,.041666668,.26666668,10,1,2,0,0,1,0,0,0,0,1,0,Group,0,1,1,,,,,.2592282,,0,0,0,Group
14,2,2,140610_0932,14,4,0,0,2,Responder,2,8,1,3,3,0,30,1,2,3,4,35,3,4,0,0,0,0,0,0,-99,1,0,0,0,40,7,1,4,3,2,40.825764,2,5.4000001,40,5,.041666668,.26666668,10,1,2,0,0,0,1,0,0,0,1,0,Group,0,1,1,,,,,.2592282,,0,1,1,Baseline
14,3,1,140610_0932,14,4,0,0,2,Responder,2,8,1,3,6,0,35,1,2,1,2,35,3,3,35,3,3,0,0,0,-99,3,0,0,0,75,13,1,4,3,2,40.825764,2,5.4000001,40,5,.041666668,.26666668,0,1,2,1,0,0,0,0,0,1,0,0,Direct,0,1,1,0,,,,.2592282,,1,0,0,Direct
14,3,2,140610_0932,14,4,0,0,2,Responder,2,8,1,3,6,0,35,1,2,3,3,35,3,3,35,3,3,0,0,0,-99,3,0,0,0,75,13,1,4,3,2,40.825764,2,5.4000001,40,5,.041666668,.26666668,0,1,2,0,1,0,0,0,0,1,0,0,Direct,0,1,1,0,,,,.2592282,,1,1,1,Baseline
14,4,1,140610_0932,14,4,0,0,2,Responder,2,8,1,3,8,0,20,1,2,2,2,35,2,2,35,2,2,0,0,0,-99,3,0,0,0,75,13,1,4,3,2,40.825764,2,5.4000001,40,5,.041666668,.26666668,30,1,2,0,0,0,0,0,1,0,0,1,In-Group,0,1,1,30,30,,,.2592282,,1,1,1,Baseline
14,4,2,140610_0932,14,4,0,0,2,Responder,2,8,1,3,8,0,50,1,2,4,1,35,2,2,35,2,2,0,0,0,-99,3,0,0,0,75,13,1,4,3,2,40.825764,2,5.4000001,40,5,.041666668,.26666668,30,1,2,0,0,0,0,1,0,0,0,1,In-Group,0,1,1,30,30,,,.2592282,,1,0,0,In-Group
14,5,1,140610_0932,14,4,0,0,2,Responder,2,8,1,2,1,0,40,3,1,6,2,35,3,4,35,3,4,0,0,0,-99,5,0,0,0,75,13,1,4,3,2,40.825764,2,5.4000001,40,5,.041666668,.26666668,10,1,2,0,0,0,0,0,0,0,0,0,Baseline,0,1,1,5,,,,.2592282,,0,1,0,Baseline
14,5,2,140610_0932,14,4,0,0,2,Responder,2,8,1,2,1,0,30,3,1,3,4,35,3,4,35,3,4,0,0,0,-99,5,0,0,0,75,13,1,4,3,2,40.825764,2,5.4000001,40,5,.041666668,.26666668,10,1,2,0,0,0,0,0,0,0,0,0,Baseline,0,1,1,5,,,,.2592282,,0,1,0,Baseline
14,6,1,140610_0932,14,4,0,0,2,Responder,2,8,1,2,5,0,35,3,1,6,3,35,6,3,35,3,4,164.666666666667,145.666666666667,0,-99,4,126,0,0,201,34,1,4,3,2,40.825764,2,5.4000001,40,5,.041666668,.26666668,0,1,2,0,0,0,0,0,0,0,0,0,Baseline,0,1,1,,,,,.2592282,,0,1,0,Baseline
14,6,2,140610_0932,14,4,0,0,2,Responder,2,8,1,2,5,0,35,3,1,3,3,35,6,3,35,3,4,164.666666666667,145.666666666667,0,-99,4,126,0,0,201,34,1,4,3,2,40.825764,2,5.4000001,40,5,.041666668,.26666668,0,1,2,0,0,0,0,0,0,0,0,0,Baseline,0,1,1,,,,,.2592282,,0,1,0,Baseline
15,1,1,140610_0932,15,4,0,0,3,Responder,3,7,2,2,8,0,40,3,1,4,4,35,2,4,0,0,0,0,0,0,-99,2,0,0,0,40,7,1,4,3,2,28.442928,2,5,0,0,,0,10,1,3,0,0,0,0,1,0,0,0,1,In-Group,0,1,1,10,10,10,35,.2592282,,1,0,0,In-Group
15,1,2,140610_0932,15,4,0,0,3,Responder,3,7,2,2,8,0,30,3,1,2,4,35,2,4,0,0,0,0,0,0,-99,2,0,0,0,40,7,1,4,3,2,28.442928,2,5,0,0,,0,10,1,3,0,0,0,0,0,1,0,0,1,In-Group,0,1,1,10,10,10,35,.2592282,,1,1,1,Baseline
15,2,1,140610_0932,15,4,0,0,3,Responder,3,7,2,3,5,0,0,1,2,1,3,70,2,1,0,0,0,0,0,0,-99,1,0,0,0,40,7,1,4,3,2,28.442928,2,5,0,0,,0,70,1,3,1,0,0,0,0,0,1,0,0,Direct,0,1,1,70,,,,.2592282,,1,0,0,Direct
15,2,2,140610_0932,15,4,0,0,3,Responder,3,7,2,3,5,0,70,1,2,2,1,70,2,1,0,0,0,0,0,0,-99,1,0,0,0,40,7,1,4,3,2,28.442928,2,5,0,0,,0,70,1,3,0,1,0,0,0,0,1,0,0,Direct,0,1,1,70,,,,.2592282,,1,1,1,Baseline
15,3,1,140610_0932,15,4,0,0,3,Responder,3,7,2,1,8,0,35,2,3,6,2,35,6,2,70,2,1,0,0,0,-99,3,0,0,0,110,19,1,4,3,2,28.442928,2,5,0,0,,0,0,1,3,0,0,0,0,0,0,0,0,0,Baseline,0,1,1,,,,,.2592282,,0,1,0,Baseline
15,3,2,140610_0932,15,4,0,0,3,Responder,3,7,2,1,8,0,35,2,3,6,3,35,6,2,70,2,1,0,0,0,-99,3,0,0,0,110,19,1,4,3,2,28.442928,2,5,0,0,,0,0,1,3,0,0,0,0,0,0,0,0,0,Baseline,0,1,1,,,,,.2592282,,0,1,0,Baseline
15,4,1,140610_0932,15,4,0,0,3,Responder,3,7,2,3,1,0,35,1,2,1,4,35,1,4,0,0,0,0,0,0,-99,3,0,0,0,40,7,1,4,3,2,28.442928,2,5,0,0,,0,0,1,3,0,0,1,0,0,0,0,1,0,Group,0,1,1,5,,,,.2592282,,0,0,0,Group
15,4,2,140610_0932,15,4,0,0,3,Responder,3,7,2,3,1,0,35,1,2,2,3,35,1,4,0,0,0,0,0,0,-99,3,0,0,0,40,7,1,4,3,2,28.442928,2,5,0,0,,0,0,1,3,0,0,0,1,0,0,0,1,0,Group,0,1,1,5,,,,.2592282,,0,1,1,Baseline
15,5,1,140610_0932,15,4,0,0,3,Responder,3,7,2,2,4,0,40,3,1,5,1,35,1,1,35,6,2,0,0,0,-99,5,0,0,0,75,13,1,4,3,2,28.442928,2,5,0,0,,0,10,1,3,0,0,0,1,0,0,0,1,0,Group,0,1,1,,,,,.2592282,,0,1,1,Baseline
15,5,2,140610_0932,15,4,0,0,3,Responder,3,7,2,2,4,0,30,3,1,1,1,35,1,1,35,6,2,0,0,0,-99,5,0,0,0,75,13,1,4,3,2,28.442928,2,5,0,0,,0,10,1,3,0,0,1,0,0,0,0,1,0,Group,0,1,1,,,,,.2592282,,0,0,0,Group
15,6,1,140610_0932,15,4,0,0,3,Responder,3,7,2,2,2,0,35,3,1,5,2,35,5,2,35,2,4,185,111.666666666667,0,-99,4,30,170,30,105,18,1,4,3,2,28.442928,2,5,0,0,,0,0,1,3,0,0,0,0,0,0,0,0,0,Baseline,0,1,1,0,,,,.2592282,,0,1,0,Baseline
15,6,2,140610_0932,15,4,0,0,3,Responder,3,7,2,2,2,0,35,3,1,2,3,35,5,2,35,2,4,185,111.666666666667,0,-99,4,30,170,30,105,18,1,4,3,2,28.442928,2,5,0,0,,0,0,1,3,0,0,0,0,0,0,0,0,0,Baseline,0,1,1,0,,,,.2592282,,0,1,0,Baseline
16,1,1,140610_0932,16,4,0,0,4,Responder,4,7,1,3,8,267,10,1,2,2,4,35,2,4,0,0,0,0,0,0,-99,2,0,0,0,297,50,1,4,2,2,28.442928,2,5.4000001,149,180,.40268457,.99333334,50,1,4,0,0,0,0,0,1,0,0,1,In-Group,0,1,1,50,50,50,35,.2592282,,1,1,1,Baseline
16,1,2,140610_0932,16,4,0,0,4,Responder,4,7,1,3,8,267,60,1,2,4,3,35,2,4,0,0,0,0,0,0,-99,2,0,0,0,297,50,1,4,2,2,28.442928,2,5.4000001,149,180,.40268457,.99333334,50,1,4,0,0,0,0,1,0,0,0,1,In-Group,0,1,1,50,50,50,35,.2592282,,1,0,0,In-Group
16,2,1,140610_0932,16,4,0,0,4,Responder,4,7,1,2,4,0,35,3,1,5,2,30,4,4,0,0,0,0,0,0,-99,1,0,0,0,30,5,1,4,2,2,28.442928,2,5.4000001,149,180,.40268457,.99333334,0,1,4,0,0,0,1,0,0,0,1,0,Group,0,1,1,,,,,.2592282,,0,1,1,Baseline
16,2,2,140610_0932,16,4,0,0,4,Responder,4,7,1,2,4,0,35,3,1,1,2,30,4,4,0,0,0,0,0,0,-99,1,0,0,0,30,5,1,4,2,2,28.442928,2,5.4000001,149,180,.40268457,.99333334,0,1,4,0,0,1,0,0,0,0,1,0,Group,0,1,1,,,,,.2592282,,0,0,0,Group
16,3,1,140610_0932,16,4,0,0,4,Responder,4,7,1,2,2,0,34,3,1,5,1,30,4,4,0,0,0,0,0,0,-99,3,0,0,0,30,5,1,4,2,2,28.442928,2,5.4000001,149,180,.40268457,.99333334,2,1,4,0,0,0,0,0,0,0,0,0,Baseline,0,1,1,,,,,.2592282,,0,1,0,Baseline
16,3,2,140610_0932,16,4,0,0,4,Responder,4,7,1,2,2,0,36,3,1,2,4,30,4,4,0,0,0,0,0,0,-99,3,0,0,0,30,5,1,4,2,2,28.442928,2,5.4000001,149,180,.40268457,.99333334,2,1,4,0,0,0,0,0,0,0,0,0,Baseline,0,1,1,,,,,.2592282,,0,1,0,Baseline
16,4,1,140610_0932,16,4,0,0,4,Responder,4,7,1,2,2,0,1,3,1,6,4,0,1,3,35,2,4,0,0,0,-99,3,0,0,0,65,11,1,4,2,2,28.442928,2,5.4000001,149,180,.40268457,.99333334,68,1,4,0,0,0,1,0,0,0,1,0,Group,0,1,1,34,,,,.2592282,,0,1,1,Baseline
16,4,2,140610_0932,16,4,0,0,4,Responder,4,7,1,2,2,0,69,3,1,1,3,0,1,3,35,2,4,0,0,0,-99,3,0,0,0,65,11,1,4,2,2,28.442928,2,5.4000001,149,180,.40268457,.99333334,68,1,4,0,0,1,0,0,0,0,1,0,Group,0,1,1,34,,,,.2592282,,0,0,0,Group
16,5,1,140610_0932,16,4,0,0,4,Responder,4,7,1,3,5,0,65,1,2,1,4,1,1,4,1,1,4,0,0,0,-99,5,0,0,0,31,6,1,4,2,2,28.442928,2,5.4000001,149,180,.40268457,.99333334,60,1,4,1,0,0,0,0,0,1,0,0,Direct,0,1,1,60,,,,.2592282,,1,0,0,Direct
16,5,2,140610_0932,16,4,0,0,4,Responder,4,7,1,3,5,0,5,1,2,2,2,1,1,4,1,1,4,0,0,0,-99,5,0,0,0,31,6,1,4,2,2,28.442928,2,5.4000001,149,180,.40268457,.99333334,60,1,4,0,1,0,0,0,0,1,0,0,Direct,0,1,1,60,,,,.2592282,,1,1,1,Baseline
16,6,1,140610_0932,16,4,0,0,4,Responder,4,7,1,1,8,0,35,2,3,6,1,35,6,4,30,4,4,185,111.666666666667,0,-99,4,170,0,0,230,39,1,4,2,2,28.442928,2,5.4000001,149,180,.40268457,.99333334,0,1,4,0,0,0,0,0,0,0,0,0,Baseline,0,1,1,1,,,,.2592282,,0,1,0,Baseline
16,6,2,140610_0932,16,4,0,0,4,Responder,4,7,1,1,8,0,35,2,3,6,4,35,6,4,30,4,4,185,111.666666666667,0,-99,4,170,0,0,230,39,1,4,2,2,28.442928,2,5.4000001,149,180,.40268457,.99333334,0,1,4,0,0,0,0,0,0,0,0,0,Baseline,0,1,1,1,,,,.2592282,,0,1,0,Baseline
17,1,1,140610_0932,17,5,0,0,5,Responder,1,10,2,3,7,250,35,1,2,3,1,35,3,1,0,0,0,0,0,0,-99,2,0,0,0,265,45,1,5,1,1,41.743954,2,5.5999999,150,200,.44444445,1,0,2,1,0,0,0,0,0,0,0,0,0,Baseline,0,1,1,,,68,42,.26875001,,0,1,0,Baseline
17,1,2,140610_0932,17,5,0,0,5,Responder,1,10,2,3,7,250,35,1,2,3,2,35,3,1,0,0,0,0,0,0,-99,2,0,0,0,265,45,1,5,1,1,41.743954,2,5.5999999,150,200,.44444445,1,0,2,1,0,0,0,0,0,0,0,0,0,Baseline,0,1,1,,,68,42,.26875001,,0,1,0,Baseline
17,2,1,140610_0932,17,5,0,0,5,Responder,1,10,2,2,7,0,69,3,1,5,3,30,5,1,0,0,0,0,0,0,-99,6,0,0,0,15,3,1,5,1,1,41.743954,2,5.5999999,150,200,.44444445,1,68,2,1,0,0,0,0,1,0,0,0,1,In-Group,0,1,1,68,68,,,.26875001,,1,0,0,In-Group
17,2,2,140610_0932,17,5,0,0,5,Responder,1,10,2,2,7,0,1,3,1,1,1,30,5,1,0,0,0,0,0,0,-99,6,0,0,0,15,3,1,5,1,1,41.743954,2,5.5999999,150,200,.44444445,1,68,2,1,0,0,0,0,0,1,0,0,1,In-Group,0,1,1,68,68,,,.26875001,,1,1,1,Baseline
17,3,1,140610_0932,17,5,0,0,5,Responder,1,10,2,3,2,0,35,1,2,2,4,34,4,4,34,4,4,0,0,0,-99,4,0,0,0,49,9,1,5,1,1,41.743954,2,5.5999999,150,200,.44444445,1,0,2,1,0,0,1,0,0,0,0,1,0,Group,0,1,1,0,,,,.26875001,,0,0,0,Group
17,3,2,140610_0932,17,5,0,0,5,Responder,1,10,2,3,2,0,35,1,2,4,4,34,4,4,34,4,4,0,0,0,-99,4,0,0,0,49,9,1,5,1,1,41.743954,2,5.5999999,150,200,.44444445,1,0,2,1,0,0,0,1,0,0,0,1,0,Group,0,1,1,0,,,,.26875001,,0,1,1,Baseline
17,4,1,140610_0932,17,5,0,0,5,Responder,1,10,2,3,6,0,35,1,2,1,2,35,1,2,35,1,2,0,0,0,-99,4,0,0,0,50,9,1,5,1,1,41.743954,2,5.5999999,150,200,.44444445,1,0,2,1,0,1,0,0,0,0,1,0,0,Direct,0,1,1,0,,,,.26875001,,1,1,1,Baseline
17,4,2,140610_0932,17,5,0,0,5,Responder,1,10,2,3,6,0,35,1,2,2,1,35,1,2,35,1,2,0,0,0,-99,4,0,0,0,50,9,1,5,1,1,41.743954,2,5.5999999,150,200,.44444445,1,0,2,1,1,0,0,0,0,0,1,0,0,Direct,0,1,1,0,,,,.26875001,,1,0,0,Direct
17,5,1,140610_0932,17,5,0,0,5,Responder,1,10,2,3,4,0,35,1,2,1,1,35,1,1,30,5,1,0,0,0,-99,6,0,0,0,45,8,1,5,1,1,41.743954,2,5.5999999,150,200,.44444445,1,0,2,1,0,0,0,0,0,0,0,0,0,Baseline,0,1,1,0,,,,.26875001,,0,1,0,Baseline
17,5,2,140610_0932,17,5,0,0,5,Responder,1,10,2,3,4,0,35,1,2,4,3,35,1,1,30,5,1,0,0,0,-99,6,0,0,0,45,8,1,5,1,1,41.743954,2,5.5999999,150,200,.44444445,1,0,2,1,0,0,0,0,0,0,0,0,0,Baseline,0,1,1,0,,,,.26875001,,0,1,0,Baseline
17,6,1,140610_0932,17,5,0,0,5,Responder,1,10,2,3,4,0,35,1,2,2,4,30,5,1,34,4,4,164.333333333333,149.333333333333,0,-99,6,100,200,100,149,25,1,5,1,1,41.743954,2,5.5999999,150,200,.44444445,1,0,2,1,0,0,1,0,0,0,0,1,0,Group,0,1,1,,,,,.26875001,,0,0,0,Group
17,6,2,140610_0932,17,5,0,0,5,Responder,1,10,2,3,4,0,35,1,2,3,1,30,5,1,34,4,4,164.333333333333,149.333333333333,0,-99,6,100,200,100,149,25,1,5,1,1,41.743954,2,5.5999999,150,200,.44444445,1,0,2,1,0,0,0,1,0,0,0,1,0,Group,0,1,1,,,,,.26875001,,0,1,1,Baseline
18,1,1,140610_0932,18,5,0,0,6,Responder,2,10,1,2,5,29,35,3,1,6,1,30,2,2,0,0,0,0,0,0,-99,2,0,0,0,44,8,1,5,1,1,28.442928,2,5.5999999,10,1,.033333335,.06666667,0,2,2,0,1,0,0,0,0,1,0,0,Direct,0,1,1,0,,70,42,.26875001,,1,1,1,Baseline
18,1,2,140610_0932,18,5,0,0,6,Responder,2,10,1,2,5,29,35,3,1,2,2,30,2,2,0,0,0,0,0,0,-99,2,0,0,0,44,8,1,5,1,1,28.442928,2,5.5999999,10,1,.033333335,.06666667,0,2,2,1,0,0,0,0,0,1,0,0,Direct,0,1,1,0,,70,42,.26875001,,1,0,0,Direct
18,2,1,140610_0932,18,5,0,0,6,Responder,2,10,1,3,4,0,35,1,2,1,2,35,4,4,0,0,0,0,0,0,-99,6,0,0,0,15,3,1,5,1,1,28.442928,2,5.5999999,10,1,.033333335,.06666667,0,2,2,0,0,0,0,0,0,0,0,0,Baseline,0,1,1,,,,,.26875001,,0,1,0,Baseline
18,2,2,140610_0932,18,5,0,0,6,Responder,2,10,1,3,4,0,35,1,2,4,4,35,4,4,0,0,0,0,0,0,-99,6,0,0,0,15,3,1,5,1,1,28.442928,2,5.5999999,10,1,.033333335,.06666667,0,2,2,0,0,0,0,0,0,0,0,0,Baseline,0,1,1,,,,,.26875001,,0,1,0,Baseline
18,3,1,140610_0932,18,5,0,0,6,Responder,2,10,1,3,4,0,70,1,2,2,3,35,3,2,35,3,2,0,0,0,-99,4,0,0,0,50,9,1,5,1,1,28.442928,2,5.5999999,10,1,.033333335,.06666667,70,2,2,0,0,1,0,0,0,0,1,0,Group,0,1,1,,,,,.26875001,,0,0,0,Group
18,3,2,140610_0932,18,5,0,0,6,Responder,2,10,1,3,4,0,0,1,2,3,2,35,3,2,35,3,2,0,0,0,-99,4,0,0,0,50,9,1,5,1,1,28.442928,2,5.5999999,10,1,.033333335,.06666667,70,2,2,0,0,0,1,0,0,0,1,0,Group,0,1,1,,,,,.26875001,,0,1,1,Baseline
18,4,1,140610_0932,18,5,0,0,6,Responder,2,10,1,23,3,0,35,1,2,3,2,30,3,2,30,3,2,0,0,0,-99,4,0,0,0,45,8,1,5,1,1,28.442928,2,5.5999999,10,1,.033333335,.06666667,0,2,2,0,0,0,0,0,0,0,0,0,Baseline,0,1,1,0,,,,.26875001,,0,1,0,Baseline
18,4,2,140610_0932,18,5,0,0,6,Responder,2,10,1,23,3,0,35,1,2,0,0,30,3,2,30,3,2,0,0,0,-99,4,0,0,0,45,8,1,5,1,1,28.442928,2,5.5999999,10,1,.033333335,.06666667,0,2,2,0,0,0,0,0,0,0,0,0,Baseline,0,1,1,0,,,,.26875001,,0,1,0,Baseline
18,5,1,140610_0932,18,5,0,0,6,Responder,2,10,1,2,7,0,70,3,1,5,4,35,1,2,35,3,2,0,0,0,-99,6,0,0,0,50,9,1,5,1,1,28.442928,2,5.5999999,10,1,.033333335,.06666667,70,2,2,0,0,0,0,1,0,0,0,1,In-Group,0,1,1,70,70,,,.26875001,,1,0,0,In-Group
18,5,2,140610_0932,18,5,0,0,6,Responder,2,10,1,2,7,0,0,3,1,1,2,35,1,2,35,3,2,0,0,0,-99,6,0,0,0,50,9,1,5,1,1,28.442928,2,5.5999999,10,1,.033333335,.06666667,70,2,2,0,0,0,0,0,1,0,0,1,In-Group,0,1,1,70,70,,,.26875001,,1,1,1,Baseline
18,6,1,140610_0932,18,5,0,0,6,Responder,2,10,1,3,2,0,35,1,2,2,3,30,5,2,35,3,2,185,111.666666666667,0,-99,6,200,0,0,250,42,1,5,1,1,28.442928,2,5.5999999,10,1,.033333335,.06666667,0,2,2,0,0,1,0,0,0,0,1,0,Group,0,1,1,35,,,,.26875001,,0,0,0,Group
18,6,2,140610_0932,18,5,0,0,6,Responder,2,10,1,3,2,0,35,1,2,4,3,30,5,2,35,3,2,185,111.666666666667,0,-99,6,200,0,0,250,42,1,5,1,1,28.442928,2,5.5999999,10,1,.033333335,.06666667,0,2,2,0,0,0,1,0,0,0,1,0,Group,0,1,1,35,,,,.26875001,,0,1,1,Baseline
19,1,1,140610_0932,19,5,0,0,7,Responder,3,9,2,3,6,150,35,1,2,1,4,35,1,4,0,0,0,0,0,0,-99,2,0,0,0,175,30,1,5,2,1,40.629204,2,5.4000001,80,90,.375,.53333336,0,2,3,0,1,0,0,0,0,1,0,0,Direct,0,1,1,0,,10,42,.26875001,,1,1,1,Baseline
19,1,2,140610_0932,19,5,0,0,7,Responder,3,9,2,3,6,150,35,1,2,2,3,35,1,4,0,0,0,0,0,0,-99,2,0,0,0,175,30,1,5,2,1,40.629204,2,5.4000001,80,90,.375,.53333336,0,2,3,1,0,0,0,0,0,1,0,0,Direct,0,1,1,0,,10,42,.26875001,,1,0,0,Direct
19,2,1,140610_0932,19,5,0,0,7,Responder,3,9,2,3,7,0,30,1,2,1,1,69,5,1,0,0,0,0,0,0,-99,6,0,0,0,25,5,1,5,2,1,40.629204,2,5.4000001,80,90,.375,.53333336,10,2,3,0,0,0,0,0,1,0,0,1,In-Group,0,1,1,10,10,,,.26875001,,1,1,1,Baseline
19,2,2,140610_0932,19,5,0,0,7,Responder,3,9,2,3,7,0,40,1,2,5,1,69,5,1,0,0,0,0,0,0,-99,6,0,0,0,25,5,1,5,2,1,40.629204,2,5.4000001,80,90,.375,.53333336,10,2,3,0,0,0,0,1,0,0,0,1,In-Group,0,1,1,10,10,,,.26875001,,1,0,0,In-Group
19,3,1,140610_0932,19,5,0,0,7,Responder,3,9,2,3,3,0,40,1,2,1,3,35,2,2,0,0,0,0,0,0,-99,4,0,0,0,25,5,1,5,2,1,40.629204,2,5.4000001,80,90,.375,.53333336,10,2,3,0,0,0,1,0,0,0,1,0,Group,0,1,1,20,,,,.26875001,,0,1,1,Baseline
19,3,2,140610_0932,19,5,0,0,7,Responder,3,9,2,3,3,0,30,1,2,2,2,35,2,2,0,0,0,0,0,0,-99,4,0,0,0,25,5,1,5,2,1,40.629204,2,5.4000001,80,90,.375,.53333336,10,2,3,0,0,1,0,0,0,0,1,0,Group,0,1,1,20,,,,.26875001,,0,0,0,Group
19,4,1,140610_0932,19,5,0,0,7,Responder,3,9,2,3,7,0,20,1,2,3,3,35,3,3,0,0,0,0,0,0,-99,4,0,0,0,25,5,1,5,2,1,40.629204,2,5.4000001,80,90,.375,.53333336,30,2,3,0,0,0,0,0,0,0,0,0,Baseline,0,1,1,,,,,.26875001,,0,1,0,Baseline
19,4,2,140610_0932,19,5,0,0,7,Responder,3,9,2,3,7,0,50,1,2,3,4,35,3,3,0,0,0,0,0,0,-99,4,0,0,0,25,5,1,5,2,1,40.629204,2,5.4000001,80,90,.375,.53333336,30,2,3,0,0,0,0,0,0,0,0,0,Baseline,0,1,1,,,,,.26875001,,0,1,0,Baseline
19,5,1,140610_0932,19,5,0,0,7,Responder,3,9,2,2,6,0,35,3,1,6,1,35,3,1,35,3,3,0,0,0,-99,6,0,0,0,60,10,1,5,2,1,40.629204,2,5.4000001,80,90,.375,.53333336,0,2,3,0,0,0,0,0,0,0,0,0,Baseline,0,1,1,15,,,,.26875001,,0,1,0,Baseline
19,5,2,140610_0932,19,5,0,0,7,Responder,3,9,2,2,6,0,35,3,1,3,1,35,3,1,35,3,3,0,0,0,-99,6,0,0,0,60,10,1,5,2,1,40.629204,2,5.4000001,80,90,.375,.53333336,0,2,3,0,0,0,0,0,0,0,0,0,Baseline,0,1,1,15,,,,.26875001,,0,1,0,Baseline
19,6,1,140610_0932,19,5,0,0,7,Responder,3,9,2,2,1,0,50,3,1,6,2,35,6,2,35,2,2,165.833333333333,145.833333333333,0,-99,6,100,200,100,160,27,1,5,2,1,40.629204,2,5.4000001,80,90,.375,.53333336,30,2,3,0,0,0,1,0,0,0,1,0,Group,0,1,1,,,,,.26875001,,0,1,1,Baseline
19,6,2,140610_0932,19,5,0,0,7,Responder,3,9,2,2,1,0,20,3,1,2,2,35,6,2,35,2,2,165.833333333333,145.833333333333,0,-99,6,100,200,100,160,27,1,5,2,1,40.629204,2,5.4000001,80,90,.375,.53333336,30,2,3,0,0,1,0,0,0,0,1,0,Group,0,1,1,,,,,.26875001,,0,0,0,Group
20,1,1,140610_0932,20,5,0,0,8,Responder,4,9,1,2,3,350,35,3,1,6,3,35,3,4,35,3,4,0,0,0,-99,2,0,0,0,410,69,1,5,2,1,36.817478,2,5.5999999,150,100,.22222222,1,0,2,4,0,0,0,0,0,0,0,0,0,Baseline,0,1,1,0,,20,42,.26875001,,0,1,0,Baseline
20,1,2,140610_0932,20,5,0,0,8,Responder,4,9,1,2,3,350,35,3,1,3,4,35,3,4,35,3,4,0,0,0,-99,2,0,0,0,410,69,1,5,2,1,36.817478,2,5.5999999,150,100,.22222222,1,0,2,4,0,0,0,0,0,0,0,0,0,Baseline,0,1,1,0,,20,42,.26875001,,0,1,0,Baseline
20,2,1,140610_0932,20,5,0,0,8,Responder,4,9,1,2,6,0,35,3,1,6,2,30,5,4,0,0,0,0,0,0,-99,6,0,0,0,25,5,1,5,2,1,36.817478,2,5.5999999,150,100,.22222222,1,0,2,4,0,0,0,0,0,0,0,0,0,Baseline,0,1,1,,,,,.26875001,,0,1,0,Baseline
20,2,2,140610_0932,20,5,0,0,8,Responder,4,9,1,2,6,0,35,3,1,3,2,30,5,4,0,0,0,0,0,0,-99,6,0,0,0,25,5,1,5,2,1,36.817478,2,5.5999999,150,100,.22222222,1,0,2,4,0,0,0,0,0,0,0,0,0,Baseline,0,1,1,,,,,.26875001,,0,1,0,Baseline
20,3,1,140610_0932,20,5,0,0,8,Responder,4,9,1,2,1,0,35,3,1,6,1,30,5,4,35,3,4,0,0,0,-99,4,0,0,0,60,10,1,5,2,1,36.817478,2,5.5999999,150,100,.22222222,1,0,2,4,0,0,0,1,0,0,0,1,0,Group,0,1,1,,,,,.26875001,,0,1,1,Baseline
20,3,2,140610_0932,20,5,0,0,8,Responder,4,9,1,2,1,0,35,3,1,2,1,30,5,4,35,3,4,0,0,0,-99,4,0,0,0,60,10,1,5,2,1,36.817478,2,5.5999999,150,100,.22222222,1,0,2,4,0,0,1,0,0,0,0,1,0,Group,0,1,1,,,,,.26875001,,0,0,0,Group
20,4,1,140610_0932,20,5,0,0,8,Responder,4,9,1,2,5,0,20,3,1,6,3,1,2,4,35,3,4,0,0,0,-99,4,0,0,0,60,10,1,5,2,1,36.817478,2,5.5999999,150,100,.22222222,1,30,2,4,0,1,0,0,0,0,1,0,0,Direct,0,1,1,30,,,,.26875001,,1,1,1,Baseline
20,4,2,140610_0932,20,5,0,0,8,Responder,4,9,1,2,5,0,50,3,1,2,4,1,2,4,35,3,4,0,0,0,-99,4,0,0,0,60,10,1,5,2,1,36.817478,2,5.5999999,150,100,.22222222,1,30,2,4,1,0,0,0,0,0,1,0,0,Direct,0,1,1,30,,,,.26875001,,1,0,0,Direct
20,5,1,140610_0932,20,5,0,0,8,Responder,4,9,1,3,7,0,25,1,2,1,2,35,1,2,30,5,4,0,0,0,-99,6,0,0,0,55,10,1,5,2,1,36.817478,2,5.5999999,150,100,.22222222,1,20,2,4,0,0,0,0,0,1,0,0,1,In-Group,0,1,1,20,20,,,.26875001,,1,1,1,Baseline
20,5,2,140610_0932,20,5,0,0,8,Responder,4,9,1,3,7,0,45,1,2,5,2,35,1,2,30,5,4,0,0,0,-99,6,0,0,0,55,10,1,5,2,1,36.817478,2,5.5999999,150,100,.22222222,1,20,2,4,0,0,0,0,1,0,0,0,1,In-Group,0,1,1,20,20,,,.26875001,,1,0,0,In-Group
20,6,1,140610_0932,20,5,0,0,8,Responder,4,9,1,3,3,0,35,1,2,1,4,30,5,4,1,2,4,170.833333333333,134.166666666667,0,-99,6,200,0,0,226,38,1,5,2,1,36.817478,2,5.5999999,150,100,.22222222,1,0,2,4,0,0,0,1,0,0,0,1,0,Group,0,1,1,0,,,,.26875001,,0,1,1,Baseline
20,6,2,140610_0932,20,5,0,0,8,Responder,4,9,1,3,3,0,35,1,2,2,1,30,5,4,1,2,4,170.833333333333,134.166666666667,0,-99,6,200,0,0,226,38,1,5,2,1,36.817478,2,5.5999999,150,100,.22222222,1,0,2,4,0,0,1,0,0,0,0,1,0,Group,0,1,1,0,,,,.26875001,,0,0,0,Group
21,1,1,140610_0932,21,6,0,0,9,Responder,1,12,2,3,5,29,35,1,2,2,2,40,2,2,0,0,0,0,0,0,-99,5,0,0,0,59,10,1,6,2,2,28.442928,2,5.1999998,10,1,.033333335,.06666667,0,3,1,0,0,0,0,0,0,0,0,0,Baseline,0,1,1,0,,38,9.5,.30000001,,0,1,0,Baseline
21,1,2,140610_0932,21,6,0,0,9,Responder,1,12,2,3,5,29,35,1,2,5,2,40,2,2,0,0,0,0,0,0,-99,5,0,0,0,59,10,1,6,2,2,28.442928,2,5.1999998,10,1,.033333335,.06666667,0,3,1,0,0,0,0,0,0,0,0,0,Baseline,0,1,1,0,,38,9.5,.30000001,,0,1,0,Baseline
21,2,1,140610_0932,21,6,0,0,9,Responder,1,12,2,3,1,0,35,1,2,3,3,35,4,1,0,0,0,0,0,0,-99,1,0,0,0,30,5,1,6,2,2,28.442928,2,5.1999998,10,1,.033333335,.06666667,0,3,1,0,0,1,0,0,0,0,1,0,Group,0,1,1,0,,,,.30000001,,0,0,0,Group
21,2,2,140610_0932,21,6,0,0,9,Responder,1,12,2,3,1,0,35,1,2,4,1,35,4,1,0,0,0,0,0,0,-99,1,0,0,0,30,5,1,6,2,2,28.442928,2,5.1999998,10,1,.033333335,.06666667,0,3,1,0,0,0,1,0,0,0,1,0,Group,0,1,1,0,,,,.30000001,,0,1,1,Baseline
21,3,1,140610_0932,21,6,0,0,9,Responder,1,12,2,3,1,0,35,1,2,2,1,35,5,4,40,2,2,0,0,0,-99,4,0,0,0,70,12,1,6,2,2,28.442928,2,5.1999998,10,1,.033333335,.06666667,0,3,1,0,0,0,0,0,0,0,0,0,Baseline,0,1,1,,,,,.30000001,,0,1,0,Baseline
21,3,2,140610_0932,21,6,0,0,9,Responder,1,12,2,3,1,0,35,1,2,5,4,35,5,4,40,2,2,0,0,0,-99,4,0,0,0,70,12,1,6,2,2,28.442928,2,5.1999998,10,1,.033333335,.06666667,0,3,1,0,0,0,0,0,0,0,0,0,Baseline,0,1,1,,,,,.30000001,,0,1,0,Baseline
21,4,1,140610_0932,21,6,0,0,9,Responder,1,12,2,3,3,0,35,1,2,3,2,40,3,2,40,2,2,0,0,0,-99,6,0,0,0,70,12,1,6,2,2,28.442928,2,5.1999998,10,1,.033333335,.06666667,0,3,1,0,0,1,0,0,0,0,1,0,Group,0,1,1,,,,,.30000001,,0,0,0,Group
21,4,2,140610_0932,21,6,0,0,9,Responder,1,12,2,3,3,0,35,1,2,0,0,40,3,2,40,2,2,0,0,0,-99,6,0,0,0,70,12,1,6,2,2,28.442928,2,5.1999998,10,1,.033333335,.06666667,0,3,1,0,0,0,1,0,0,0,1,0,Group,0,1,1,,,,,.30000001,,0,1,1,Baseline
21,5,1,140610_0932,21,6,0,0,9,Responder,1,12,2,3,6,0,35,1,2,3,1,35,3,1,35,5,4,0,0,0,-99,5,0,0,0,65,11,1,6,2,2,28.442928,2,5.1999998,10,1,.033333335,.06666667,0,3,1,1,0,0,0,0,0,1,0,0,Direct,0,1,1,0,,,,.30000001,,1,0,0,Direct
21,5,2,140610_0932,21,6,0,0,9,Responder,1,12,2,3,6,0,35,1,2,5,3,35,3,1,35,5,4,0,0,0,-99,5,0,0,0,65,11,1,6,2,2,28.442928,2,5.1999998,10,1,.033333335,.06666667,0,3,1,0,1,0,0,0,0,1,0,0,Direct,0,1,1,0,,,,.30000001,,1,1,1,Baseline
21,6,1,140610_0932,21,6,0,0,9,Responder,1,12,2,2,8,0,54,3,1,6,4,35,6,4,40,2,2,185,111.666666666667,0,-99,3,170,170,170,240,40,1,6,2,2,28.442928,2,5.1999998,10,1,.033333335,.06666667,38,3,1,0,0,0,0,1,0,0,0,1,In-Group,0,1,1,38,38,,,.30000001,,1,0,0,In-Group
21,6,2,140610_0932,21,6,0,0,9,Responder,1,12,2,2,8,0,16,3,1,4,4,35,6,4,40,2,2,185,111.666666666667,0,-99,3,170,170,170,240,40,1,6,2,2,28.442928,2,5.1999998,10,1,.033333335,.06666667,38,3,1,0,0,0,0,0,1,0,0,1,In-Group,0,1,1,38,38,,,.30000001,,1,1,1,Baseline
22,1,1,140610_0932,22,6,0,0,10,Responder,2,12,1,3,2,225,35,1,2,1,1,35,1,1,35,1,1,0,0,0,-99,5,0,0,0,290,49,1,6,2,2,41.743954,2,3,150,225,.5,1,0,3,2,0,0,0,0,0,0,0,0,0,Baseline,0,1,1,0,,0,9.5,.30000001,,0,1,0,Baseline
22,1,2,140610_0932,22,6,0,0,10,Responder,2,12,1,3,2,225,35,1,2,4,2,35,1,1,35,1,1,0,0,0,-99,5,0,0,0,290,49,1,6,2,2,41.743954,2,3,150,225,.5,1,0,3,2,0,0,0,0,0,0,0,0,0,Baseline,0,1,1,0,,0,9.5,.30000001,,0,1,0,Baseline
22,2,1,140610_0932,22,6,0,0,10,Responder,2,12,1,3,6,0,35,1,2,3,2,35,5,4,35,5,4,0,0,0,-99,1,0,0,0,65,11,1,6,2,2,41.743954,2,3,150,225,.5,1,0,3,2,1,0,0,0,0,0,1,0,0,Direct,0,1,1,0,,,,.30000001,,1,0,0,Direct
22,2,2,140610_0932,22,6,0,0,10,Responder,2,12,1,3,6,0,35,1,2,5,4,35,5,4,35,5,4,0,0,0,-99,1,0,0,0,65,11,1,6,2,2,41.743954,2,3,150,225,.5,1,0,3,2,0,1,0,0,0,0,1,0,0,Direct,0,1,1,0,,,,.30000001,,1,1,1,Baseline
22,3,1,140610_0932,22,6,0,0,10,Responder,2,12,1,2,8,0,35,3,1,6,3,30,6,2,35,5,4,0,0,0,-99,4,0,0,0,65,11,1,6,2,2,41.743954,2,3,150,225,.5,1,0,3,2,0,0,0,0,1,0,0,0,1,In-Group,0,1,1,0,0,,,.30000001,,1,0,0,In-Group
22,3,2,140610_0932,22,6,0,0,10,Responder,2,12,1,2,8,0,35,3,1,4,3,30,6,2,35,5,4,0,0,0,-99,4,0,0,0,65,11,1,6,2,2,41.743954,2,3,150,225,.5,1,0,3,2,0,0,0,0,0,1,0,0,1,In-Group,0,1,1,0,0,,,.30000001,,1,1,1,Baseline
22,4,1,140610_0932,22,6,0,0,10,Responder,2,12,1,3,4,0,35,1,2,1,1,35,1,1,35,1,1,0,0,0,-99,6,0,0,0,65,11,1,6,2,2,41.743954,2,3,150,225,.5,1,0,3,2,0,0,0,1,0,0,0,1,0,Group,0,1,1,,,,,.30000001,,0,1,1,Baseline
22,4,2,140610_0932,22,6,0,0,10,Responder,2,12,1,3,4,0,35,1,2,3,1,35,1,1,35,1,1,0,0,0,-99,6,0,0,0,65,11,1,6,2,2,41.743954,2,3,150,225,.5,1,0,3,2,0,0,1,0,0,0,0,1,0,Group,0,1,1,,,,,.30000001,,0,0,0,Group
22,5,1,140610_0932,22,6,0,0,10,Responder,2,12,1,3,1,0,35,1,2,3,4,35,3,4,30,6,2,0,0,0,-99,5,0,0,0,60,10,1,6,2,2,41.743954,2,3,150,225,.5,1,0,3,2,0,0,1,0,0,0,0,1,0,Group,0,1,1,0,,,,.30000001,,0,0,0,Group
22,5,2,140610_0932,22,6,0,0,10,Responder,2,12,1,3,1,0,35,1,2,4,2,35,3,4,30,6,2,0,0,0,-99,5,0,0,0,60,10,1,6,2,2,41.743954,2,3,150,225,.5,1,0,3,2,0,0,0,1,0,0,0,1,0,Group,0,1,1,0,,,,.30000001,,0,1,1,Baseline
22,6,1,140610_0932,22,6,0,0,10,Responder,2,12,1,3,1,0,35,1,2,2,2,30,6,2,35,3,4,164.333333333333,149.333333333333,0,-99,3,170,0,0,235,40,1,6,2,2,41.743954,2,3,150,225,.5,1,0,3,2,0,0,0,0,0,0,0,0,0,Baseline,0,1,1,,,,,.30000001,,0,1,0,Baseline
22,6,2,140610_0932,22,6,0,0,10,Responder,2,12,1,3,1,0,35,1,2,5,3,30,6,2,35,3,4,164.333333333333,149.333333333333,0,-99,3,170,0,0,235,40,1,6,2,2,41.743954,2,3,150,225,.5,1,0,3,2,0,0,0,0,0,0,0,0,0,Baseline,0,1,1,,,,,.30000001,,0,1,0,Baseline
23,1,1,140610_0932,23,6,0,0,11,Responder,3,11,2,3,3,125,35,1,2,3,4,35,3,4,0,0,0,0,0,0,-99,5,0,0,0,165,28,1,6,3,2,40.629204,2,5.1999998,50,25,.16666667,.33333334,0,3,3,0,0,1,0,0,0,0,1,0,Group,0,1,1,,,0,9.5,.30000001,,0,0,0,Group
23,1,2,140610_0932,23,6,0,0,11,Responder,3,11,2,3,3,125,35,1,2,5,4,35,3,4,0,0,0,0,0,0,-99,5,0,0,0,165,28,1,6,3,2,40.629204,2,5.1999998,50,25,.16666667,.33333334,0,3,3,0,0,0,1,0,0,0,1,0,Group,0,1,1,,,0,9.5,.30000001,,0,1,1,Baseline
23,2,1,140610_0932,23,6,0,0,11,Responder,3,11,2,3,2,0,35,1,2,2,3,35,3,1,35,3,1,0,0,0,-99,1,0,0,0,75,13,1,6,3,2,40.629204,2,5.1999998,50,25,.16666667,.33333334,0,3,3,0,0,0,1,0,0,0,1,0,Group,0,1,1,0,,,,.30000001,,0,1,1,Baseline
23,2,2,140610_0932,23,6,0,0,11,Responder,3,11,2,3,2,0,35,1,2,3,1,35,3,1,35,3,1,0,0,0,-99,1,0,0,0,75,13,1,6,3,2,40.629204,2,5.1999998,50,25,.16666667,.33333334,0,3,3,0,0,1,0,0,0,0,1,0,Group,0,1,1,0,,,,.30000001,,0,0,0,Group
23,3,1,140610_0932,23,6,0,0,11,Responder,3,11,2,3,8,0,35,1,2,4,3,35,6,2,35,3,1,0,0,0,-99,4,0,0,0,75,13,1,6,3,2,40.629204,2,5.1999998,50,25,.16666667,.33333334,0,3,3,0,0,0,0,0,1,0,0,1,In-Group,0,1,1,0,0,,,.30000001,,1,1,1,Baseline
23,3,2,140610_0932,23,6,0,0,11,Responder,3,11,2,3,8,0,35,1,2,6,2,35,6,2,35,3,1,0,0,0,-99,4,0,0,0,75,13,1,6,3,2,40.629204,2,5.1999998,50,25,.16666667,.33333334,0,3,3,0,0,0,0,1,0,0,0,1,In-Group,0,1,1,0,0,,,.30000001,,1,0,0,In-Group
23,4,1,140610_0932,23,6,0,0,11,Responder,3,11,2,3,5,0,35,1,2,2,4,69,2,4,0,0,0,0,0,0,-99,6,0,0,0,40,7,1,6,3,2,40.629204,2,5.1999998,50,25,.16666667,.33333334,0,3,3,0,0,0,0,0,0,0,0,0,Baseline,0,1,1,0,,,,.30000001,,0,1,0,Baseline
23,4,2,140610_0932,23,6,0,0,11,Responder,3,11,2,3,5,0,35,1,2,5,4,69,2,4,0,0,0,0,0,0,-99,6,0,0,0,40,7,1,6,3,2,40.629204,2,5.1999998,50,25,.16666667,.33333334,0,3,3,0,0,0,0,0,0,0,0,0,Baseline,0,1,1,0,,,,.30000001,,0,1,0,Baseline
23,5,1,140610_0932,23,6,0,0,11,Responder,3,11,2,3,8,0,35,1,2,2,1,0,2,1,0,2,1,0,0,0,-99,5,0,0,0,40,7,1,6,3,2,40.629204,2,5.1999998,50,25,.16666667,.33333334,0,3,3,0,0,0,0,0,0,0,0,0,Baseline,0,1,1,,,,,.30000001,,0,1,0,Baseline
23,5,2,140610_0932,23,6,0,0,11,Responder,3,11,2,3,8,0,35,1,2,2,3,0,2,1,0,2,1,0,0,0,-99,5,0,0,0,40,7,1,6,3,2,40.629204,2,5.1999998,50,25,.16666667,.33333334,0,3,3,0,0,0,0,0,0,0,0,0,Baseline,0,1,1,,,,,.30000001,,0,1,0,Baseline
23,6,1,140610_0932,23,6,0,0,11,Responder,3,11,2,3,5,0,35,1,2,3,3,30,6,3,35,3,1,165.833333333333,145.833333333333,0,-99,3,170,170,170,245,41,1,6,3,2,40.629204,2,5.1999998,50,25,.16666667,.33333334,0,3,3,1,0,0,0,0,0,1,0,0,Direct,0,1,1,0,,,,.30000001,,1,0,0,Direct
23,6,2,140610_0932,23,6,0,0,11,Responder,3,11,2,3,5,0,35,1,2,4,2,30,6,3,35,3,1,165.833333333333,145.833333333333,0,-99,3,170,170,170,245,41,1,6,3,2,40.629204,2,5.1999998,50,25,.16666667,.33333334,0,3,3,0,1,0,0,0,0,1,0,0,Direct,0,1,1,0,,,,.30000001,,1,1,1,Baseline
24,1,1,140610_0932,24,6,0,0,12,Responder,4,11,1,3,4,225,35,1,2,1,3,30,1,3,0,0,0,0,0,0,-99,5,0,0,0,265,45,1,6,3,2,33.186855,2,5.8000002,150,225,.5,1,0,3,4,0,0,0,1,0,0,0,1,0,Group,0,1,1,5,,0,9.5,.30000001,,0,1,1,Baseline
24,1,2,140610_0932,24,6,0,0,12,Responder,4,11,1,3,4,225,35,1,2,3,3,30,1,3,0,0,0,0,0,0,-99,5,0,0,0,265,45,1,6,3,2,33.186855,2,5.8000002,150,225,.5,1,0,3,4,0,0,1,0,0,0,0,1,0,Group,0,1,1,5,,0,9.5,.30000001,,0,0,0,Group
24,2,1,140610_0932,24,6,0,0,12,Responder,4,11,1,3,8,0,35,1,2,2,2,20,2,4,20,2,4,0,0,0,-99,1,0,0,0,60,10,1,6,3,2,33.186855,2,5.8000002,150,225,.5,1,0,3,4,0,0,0,0,0,0,0,0,0,Baseline,0,1,1,,,,,.30000001,,0,1,0,Baseline
24,2,2,140610_0932,24,6,0,0,12,Responder,4,11,1,3,8,0,35,1,2,2,4,20,2,4,20,2,4,0,0,0,-99,1,0,0,0,60,10,1,6,3,2,33.186855,2,5.8000002,150,225,.5,1,0,3,4,0,0,0,0,0,0,0,0,0,Baseline,0,1,1,,,,,.30000001,,0,1,0,Baseline
24,3,1,140610_0932,24,6,0,0,12,Responder,4,11,1,3,5,0,40,1,2,3,4,20,4,1,30,1,3,0,0,0,-99,4,0,0,0,70,12,1,6,3,2,33.186855,2,5.8000002,150,225,.5,1,10,3,4,1,0,0,0,0,0,1,0,0,Direct,0,1,1,10,,,,.30000001,,1,0,0,Direct
24,3,2,140610_0932,24,6,0,0,12,Responder,4,11,1,3,5,0,30,1,2,4,1,20,4,1,30,1,3,0,0,0,-99,4,0,0,0,70,12,1,6,3,2,33.186855,2,5.8000002,150,225,.5,1,10,3,4,0,1,0,0,0,0,1,0,0,Direct,0,1,1,10,,,,.30000001,,1,1,1,Baseline
24,4,1,140610_0932,24,6,0,0,12,Responder,4,11,1,3,2,0,35,1,2,1,3,70,1,3,30,1,3,0,0,0,-99,6,0,0,0,70,12,1,6,3,2,33.186855,2,5.8000002,150,225,.5,1,0,3,4,0,0,0,0,0,0,0,0,0,Baseline,0,1,1,0,,,,.30000001,,0,1,0,Baseline
24,4,2,140610_0932,24,6,0,0,12,Responder,4,11,1,3,2,0,35,1,2,4,4,70,1,3,30,1,3,0,0,0,-99,6,0,0,0,70,12,1,6,3,2,33.186855,2,5.8000002,150,225,.5,1,0,3,4,0,0,0,0,0,0,0,0,0,Baseline,0,1,1,0,,,,.30000001,,0,1,0,Baseline
24,5,1,140610_0932,24,6,0,0,12,Responder,4,11,1,3,2,0,30,1,2,2,4,35,2,4,70,1,3,0,0,0,-99,5,0,0,0,110,19,1,6,3,2,33.186855,2,5.8000002,150,225,.5,1,10,3,4,0,0,0,1,0,0,0,1,0,Group,0,1,1,,,,,.30000001,,0,1,1,Baseline
24,5,2,140610_0932,24,6,0,0,12,Responder,4,11,1,3,2,0,40,1,2,3,2,35,2,4,70,1,3,0,0,0,-99,5,0,0,0,110,19,1,6,3,2,33.186855,2,5.8000002,150,225,.5,1,10,3,4,0,0,1,0,0,0,0,1,0,Group,0,1,1,,,,,.30000001,,0,0,0,Group
24,6,1,140610_0932,24,6,0,0,12,Responder,4,11,1,3,8,0,35,1,2,4,4,30,6,4,20,2,4,179.166666666667,125.833333333333,0,-99,3,170,0,0,230,39,1,6,3,2,33.186855,2,5.8000002,150,225,.5,1,0,3,4,0,0,0,0,0,1,0,0,1,In-Group,0,1,1,0,0,,,.30000001,,1,1,1,Baseline
24,6,2,140610_0932,24,6,0,0,12,Responder,4,11,1,3,8,0,35,1,2,6,1,30,6,4,20,2,4,179.166666666667,125.833333333333,0,-99,3,170,0,0,230,39,1,6,3,2,33.186855,2,5.8000002,150,225,.5,1,0,3,4,0,0,0,0,1,0,0,0,1,In-Group,0,1,1,0,0,,,.30000001,,1,0,0,In-Group
25,1,1,140610_1226,1,1,0,0,1,Sender,1,2,2,1,2,275,35,2,3,4,2,35,6,2,0,0,0,0,0,0,-99,5,0,0,0,330,55,2,7,4,3,40.629204,2,4,150,225,.5,1,0,4,1,0,0,1,0,0,0,0,1,0,Group,1,1,0,,,0,0,,117.5,0,0,0,Group
25,1,2,140610_1226,1,1,0,0,1,Sender,1,2,2,1,2,275,35,2,3,6,2,35,6,2,0,0,0,0,0,0,-99,5,0,0,0,330,55,2,7,4,3,40.629204,2,4,150,225,.5,1,0,4,1,0,0,0,1,0,0,0,1,0,Group,1,1,0,,,0,0,,117.5,0,1,1,Baseline
25,2,1,140610_1226,1,1,0,0,1,Sender,1,2,2,1,7,275,35,2,3,5,1,30,1,1,30,1,1,0,0,0,-99,3,0,0,0,360,60,2,7,4,3,40.629204,2,4,150,225,.5,1,0,4,1,0,0,0,0,0,0,0,0,0,Baseline,1,1,0,,,,,,117.5,0,1,0,Baseline
25,2,2,140610_1226,1,1,0,0,1,Sender,1,2,2,1,7,275,35,2,3,5,3,30,1,1,30,1,1,0,0,0,-99,3,0,0,0,360,60,2,7,4,3,40.629204,2,4,150,225,.5,1,0,4,1,0,0,0,0,0,0,0,0,0,Baseline,1,1,0,,,,,,117.5,0,1,0,Baseline
25,3,1,140610_1226,1,1,0,0,1,Sender,1,2,2,1,7,275,35,2,3,1,4,35,3,1,0,0,0,0,0,0,-99,6,0,0,0,330,55,2,7,4,3,40.629204,2,4,150,225,.5,1,0,4,1,0,0,0,0,1,0,0,0,1,In-Group,1,1,0,0,0,,,,117.5,1,0,0,In-Group
25,3,2,140610_1226,1,1,0,0,1,Sender,1,2,2,1,7,275,35,2,3,3,1,35,3,1,0,0,0,0,0,0,-99,6,0,0,0,330,55,2,7,4,3,40.629204,2,4,150,225,.5,1,0,4,1,0,0,0,0,0,1,0,0,1,In-Group,1,1,0,0,0,,,,117.5,1,1,1,Baseline
25,4,1,140610_1226,1,1,0,0,1,Sender,1,2,2,1,4,275,35,2,3,3,1,35,3,1,35,6,2,0,0,0,-99,4,0,0,0,365,61,2,7,4,3,40.629204,2,4,150,225,.5,1,0,4,1,0,0,0,0,0,0,0,0,0,Baseline,1,1,0,0,,,,,117.5,0,1,0,Baseline
25,4,2,140610_1226,1,1,0,0,1,Sender,1,2,2,1,4,275,35,2,3,6,2,35,3,1,35,6,2,0,0,0,-99,4,0,0,0,365,61,2,7,4,3,40.629204,2,4,150,225,.5,1,0,4,1,0,0,0,0,0,0,0,0,0,Baseline,1,1,0,0,,,,,117.5,0,1,0,Baseline
25,5,1,140610_1226,1,1,0,0,1,Sender,1,2,2,1,4,275,35,2,3,4,3,50,4,3,35,3,1,0,0,0,-99,6,0,0,0,365,61,2,7,4,3,40.629204,2,4,150,225,.5,1,0,4,1,0,0,1,0,0,0,0,1,0,Group,1,1,0,0,,,,,117.5,0,0,0,Group
25,5,2,140610_1226,1,1,0,0,1,Sender,1,2,2,1,4,275,35,2,3,5,1,50,4,3,35,3,1,0,0,0,-99,6,0,0,0,365,61,2,7,4,3,40.629204,2,4,150,225,.5,1,0,4,1,0,0,0,1,0,0,0,1,0,Group,1,1,0,0,,,,,117.5,0,1,1,Baseline
25,6,1,140610_1226,1,1,0,0,1,Sender,1,2,2,1,6,275,35,2,3,3,4,50,4,1,50,4,3,165.833333333333,145.833333333333,0,-99,5,138,163,138,518,87,2,7,4,3,40.629204,2,4,150,225,.5,1,0,4,1,0,1,0,0,0,0,1,0,0,Direct,1,1,0,0,,,,,117.5,1,1,1,Baseline
25,6,2,140610_1226,1,1,0,0,1,Sender,1,2,2,1,6,275,35,2,3,4,1,50,4,1,50,4,3,165.833333333333,145.833333333333,0,-99,5,138,163,138,518,87,2,7,4,3,40.629204,2,4,150,225,.5,1,0,4,1,1,0,0,0,0,0,1,0,0,Direct,1,1,0,0,,,,,117.5,1,0,0,Direct
26,1,1,140610_1226,2,1,0,0,2,Sender,2,2,1,1,1,185,35,2,3,2,1,35,4,1,0,0,0,0,0,0,-99,5,0,0,0,250,42,2,7,5,3,38.554276,2,5.8000002,20,5,.083333336,.13333334,0,4,2,0,0,0,1,0,0,0,1,0,Group,1,1,0,,,0,0,,117.5,0,1,1,Baseline
26,1,2,140610_1226,2,1,0,0,2,Sender,2,2,1,1,1,185,35,2,3,4,1,35,4,1,0,0,0,0,0,0,-99,5,0,0,0,250,42,2,7,5,3,38.554276,2,5.8000002,20,5,.083333336,.13333334,0,4,2,0,0,1,0,0,0,0,1,0,Group,1,1,0,,,0,0,,117.5,0,0,0,Group
26,2,1,140610_1226,2,1,0,0,2,Sender,2,2,1,1,4,185,35,2,3,4,4,30,1,2,0,0,0,0,0,0,-99,3,0,0,0,250,42,2,7,5,3,38.554276,2,5.8000002,20,5,.083333336,.13333334,0,4,2,0,0,1,0,0,0,0,1,0,Group,1,1,0,0,,,,,117.5,0,0,0,Group
26,2,2,140610_1226,2,1,0,0,2,Sender,2,2,1,1,4,185,35,2,3,5,2,30,1,2,0,0,0,0,0,0,-99,3,0,0,0,250,42,2,7,5,3,38.554276,2,5.8000002,20,5,.083333336,.13333334,0,4,2,0,0,0,1,0,0,0,1,0,Group,1,1,0,0,,,,,117.5,0,1,1,Baseline
26,3,1,140610_1226,2,1,0,0,2,Sender,2,2,1,1,6,185,20,2,3,3,3,30,4,2,30,4,2,0,0,0,-99,6,0,0,0,280,47,2,7,5,3,38.554276,2,5.8000002,20,5,.083333336,.13333334,30,4,2,0,1,0,0,0,0,1,0,0,Direct,1,1,0,30,,,,,117.5,1,1,1,Baseline
26,3,2,140610_1226,2,1,0,0,2,Sender,2,2,1,1,6,185,50,2,3,4,2,30,4,2,30,4,2,0,0,0,-99,6,0,0,0,280,47,2,7,5,3,38.554276,2,5.8000002,20,5,.083333336,.13333334,30,4,2,1,0,0,0,0,0,1,0,0,Direct,1,1,0,30,,,,,117.5,1,0,0,Direct
26,4,1,140610_1226,2,1,0,0,2,Sender,2,2,1,1,6,185,35,2,3,2,1,35,2,1,30,1,2,0,0,0,-99,4,0,0,0,280,47,2,7,5,3,38.554276,2,5.8000002,20,5,.083333336,.13333334,0,4,2,0,0,0,0,0,0,0,0,0,Baseline,1,1,0,,,,,,117.5,0,1,0,Baseline
26,4,2,140610_1226,2,1,0,0,2,Sender,2,2,1,1,6,185,35,2,3,5,1,35,2,1,30,1,2,0,0,0,-99,4,0,0,0,280,47,2,7,5,3,38.554276,2,5.8000002,20,5,.083333336,.13333334,0,4,2,0,0,0,0,0,0,0,0,0,Baseline,1,1,0,,,,,,117.5,0,1,0,Baseline
26,5,1,140610_1226,2,1,0,0,2,Sender,2,2,1,1,7,185,35,2,3,5,2,0,5,2,30,4,2,0,0,0,-99,6,0,0,0,280,47,2,7,5,3,38.554276,2,5.8000002,20,5,.083333336,.13333334,0,4,2,0,0,0,0,0,0,0,0,0,Baseline,1,1,0,0,,,,,117.5,0,1,0,Baseline
26,5,2,140610_1226,2,1,0,0,2,Sender,2,2,1,1,7,185,35,2,3,5,4,0,5,2,30,4,2,0,0,0,-99,6,0,0,0,280,47,2,7,5,3,38.554276,2,5.8000002,20,5,.083333336,.13333334,0,4,2,0,0,0,0,0,0,0,0,0,Baseline,1,1,0,0,,,,,117.5,0,1,0,Baseline
26,6,1,140610_1226,2,1,0,0,2,Sender,2,2,1,1,7,185,35,2,3,1,3,35,3,2,35,4,1,168.666666666667,139.5,0,-99,5,163,0,0,448,75,2,7,5,3,38.554276,2,5.8000002,20,5,.083333336,.13333334,0,4,2,0,0,0,0,1,0,0,0,1,In-Group,1,1,0,0,0,,,,117.5,1,0,0,In-Group
26,6,2,140610_1226,2,1,0,0,2,Sender,2,2,1,1,7,185,35,2,3,3,2,35,3,2,35,4,1,168.666666666667,139.5,0,-99,5,163,0,0,448,75,2,7,5,3,38.554276,2,5.8000002,20,5,.083333336,.13333334,0,4,2,0,0,0,0,0,1,0,0,1,In-Group,1,1,0,0,0,,,,117.5,1,1,1,Baseline
27,1,1,140610_1226,3,1,0,0,3,Sender,3,1,2,1,4,150,35,2,3,3,3,35,6,4,0,0,0,0,0,0,-99,5,0,0,0,215,36,2,7,5,3,37.023232,2,4.5999999,150,100,.22222222,1,0,4,3,0,0,0,0,0,0,0,0,0,Baseline,1,1,0,,,0,0,,117.5,0,1,0,Baseline
27,1,2,140610_1226,3,1,0,0,3,Sender,3,1,2,1,4,150,35,2,3,6,4,35,6,4,0,0,0,0,0,0,-99,5,0,0,0,215,36,2,7,5,3,37.023232,2,4.5999999,150,100,.22222222,1,0,4,3,0,0,0,0,0,0,0,0,0,Baseline,1,1,0,,,0,0,,117.5,0,1,0,Baseline
27,2,1,140610_1226,3,1,0,0,3,Sender,3,1,2,1,5,150,70,2,3,2,1,30,1,3,0,0,0,0,0,0,-99,3,0,0,0,215,36,2,7,5,3,37.023232,2,4.5999999,150,100,.22222222,1,70,4,3,0,1,0,0,0,0,1,0,0,Direct,1,1,0,70,,,,,117.5,1,1,1,Baseline
27,2,2,140610_1226,3,1,0,0,3,Sender,3,1,2,1,5,150,0,2,3,4,3,30,1,3,0,0,0,0,0,0,-99,3,0,0,0,215,36,2,7,5,3,37.023232,2,4.5999999,150,100,.22222222,1,70,4,3,1,0,0,0,0,0,1,0,0,Direct,1,1,0,70,,,,,117.5,1,0,0,Direct
27,3,1,140610_1226,3,1,0,0,3,Sender,3,1,2,1,3,150,35,2,3,2,2,35,5,3,0,0,0,0,0,0,-99,6,0,0,0,215,36,2,7,5,3,37.023232,2,4.5999999,150,100,.22222222,1,0,4,3,0,0,0,0,0,0,0,0,0,Baseline,1,1,0,0,,,,,117.5,0,1,0,Baseline
27,3,2,140610_1226,3,1,0,0,3,Sender,3,1,2,1,3,150,35,2,3,5,3,35,5,3,0,0,0,0,0,0,-99,6,0,0,0,215,36,2,7,5,3,37.023232,2,4.5999999,150,100,.22222222,1,0,4,3,0,0,0,0,0,0,0,0,0,Baseline,1,1,0,0,,,,,117.5,0,1,0,Baseline
27,4,1,140610_1226,3,1,0,0,3,Sender,3,1,2,1,2,150,35,2,3,4,4,35,4,4,35,4,4,0,0,0,-99,4,0,0,0,250,42,2,7,5,3,37.023232,2,4.5999999,150,100,.22222222,1,0,4,3,0,0,1,0,0,0,0,1,0,Group,1,1,0,0,,,,,117.5,0,0,0,Group
27,4,2,140610_1226,3,1,0,0,3,Sender,3,1,2,1,2,150,35,2,3,6,4,35,4,4,35,4,4,0,0,0,-99,4,0,0,0,250,42,2,7,5,3,37.023232,2,4.5999999,150,100,.22222222,1,0,4,3,0,0,0,1,0,0,0,1,0,Group,1,1,0,0,,,,,117.5,0,1,1,Baseline
27,5,1,140610_1226,3,1,0,0,3,Sender,3,1,2,1,3,150,35,2,3,3,3,35,3,3,35,3,3,0,0,0,-99,6,0,0,0,250,42,2,7,5,3,37.023232,2,4.5999999,150,100,.22222222,1,0,4,3,0,0,0,1,0,0,0,1,0,Group,1,1,0,,,,,,117.5,0,1,1,Baseline
27,5,2,140610_1226,3,1,0,0,3,Sender,3,1,2,1,3,150,35,2,3,4,1,35,3,3,35,3,3,0,0,0,-99,6,0,0,0,250,42,2,7,5,3,37.023232,2,4.5999999,150,100,.22222222,1,0,4,3,0,0,1,0,0,0,0,1,0,Group,1,1,0,,,,,,117.5,0,0,0,Group
27,6,1,140610_1226,3,1,0,0,3,Sender,3,1,2,2,7,150,35,3,1,3,2,35,3,2,35,4,4,174.166666666667,137.5,0,-99,5,100,200,100,350,59,2,7,5,3,37.023232,2,4.5999999,150,100,.22222222,1,0,4,3,0,0,0,0,0,1,0,0,1,In-Group,1,1,0,0,0,,,,117.5,1,1,1,Baseline
27,6,2,140610_1226,3,1,0,0,3,Sender,3,1,2,2,7,150,35,3,1,1,2,35,3,2,35,4,4,174.166666666667,137.5,0,-99,5,100,200,100,350,59,2,7,5,3,37.023232,2,4.5999999,150,100,.22222222,1,0,4,3,0,0,0,0,1,0,0,0,1,In-Group,1,1,0,0,0,,,,117.5,1,0,0,In-Group
28,1,1,140610_1226,4,1,0,0,4,Sender,4,1,1,1,6,50,35,2,3,2,3,70,5,3,0,0,0,0,0,0,-99,5,0,0,0,105,18,2,7,4,3,32.391392,2,5.4000001,150,0,0,1,0,4,4,0,0,0,0,0,0,0,0,0,Baseline,1,1,0,0,,0,0,,117.5,0,1,0,Baseline
28,1,2,140610_1226,4,1,0,0,4,Sender,4,1,1,1,6,50,35,2,3,5,3,70,5,3,0,0,0,0,0,0,-99,5,0,0,0,105,18,2,7,4,3,32.391392,2,5.4000001,150,0,0,1,0,4,4,0,0,0,0,0,0,0,0,0,Baseline,1,1,0,0,,0,0,,117.5,0,1,0,Baseline
28,2,1,140610_1226,4,1,0,0,4,Sender,4,1,1,1,3,50,35,2,3,3,4,30,1,4,0,0,0,0,0,0,-99,3,0,0,0,105,18,2,7,4,3,32.391392,2,5.4000001,150,0,0,1,0,4,4,0,0,0,1,0,0,0,1,0,Group,1,1,0,0,,,,,117.5,0,1,1,Baseline
28,2,2,140610_1226,4,1,0,0,4,Sender,4,1,1,1,3,50,35,2,3,4,2,30,1,4,0,0,0,0,0,0,-99,3,0,0,0,105,18,2,7,4,3,32.391392,2,5.4000001,150,0,0,1,0,4,4,0,0,1,0,0,0,0,1,0,Group,1,1,0,0,,,,,117.5,0,0,0,Group
28,3,1,140610_1226,4,1,0,0,4,Sender,4,1,1,2,7,50,35,3,1,3,1,35,3,1,70,5,3,0,0,0,-99,6,0,0,0,175,30,2,7,4,3,32.391392,2,5.4000001,150,0,0,1,0,4,4,0,0,0,0,0,1,0,0,1,In-Group,1,1,0,0,0,,,,117.5,1,1,1,Baseline
28,3,2,140610_1226,4,1,0,0,4,Sender,4,1,1,2,7,50,35,3,1,1,1,35,3,1,70,5,3,0,0,0,-99,6,0,0,0,175,30,2,7,4,3,32.391392,2,5.4000001,150,0,0,1,0,4,4,0,0,0,0,1,0,0,0,1,In-Group,1,1,0,0,0,,,,117.5,1,0,0,In-Group
28,4,1,140610_1226,4,1,0,0,4,Sender,4,1,1,1,1,50,35,2,3,2,3,35,2,3,35,2,3,0,0,0,-99,4,0,0,0,140,24,2,7,4,3,32.391392,2,5.4000001,150,0,0,1,0,4,4,0,0,0,1,0,0,0,1,0,Group,1,1,0,,,,,,117.5,0,1,1,Baseline
28,4,2,140610_1226,4,1,0,0,4,Sender,4,1,1,1,1,50,35,2,3,4,3,35,2,3,35,2,3,0,0,0,-99,4,0,0,0,140,24,2,7,4,3,32.391392,2,5.4000001,150,0,0,1,0,4,4,0,0,1,0,0,0,0,1,0,Group,1,1,0,,,,,,117.5,0,0,0,Group
28,5,1,140610_1226,4,1,0,0,4,Sender,4,1,1,1,5,50,35,2,3,2,2,35,2,2,70,5,3,0,0,0,-99,6,0,0,0,175,30,2,7,4,3,32.391392,2,5.4000001,150,0,0,1,0,4,4,0,1,0,0,0,0,1,0,0,Direct,1,1,0,0,,,,,117.5,1,1,1,Baseline
28,5,2,140610_1226,4,1,0,0,4,Sender,4,1,1,1,5,50,35,2,3,4,4,35,2,2,70,5,3,0,0,0,-99,6,0,0,0,175,30,2,7,4,3,32.391392,2,5.4000001,150,0,0,1,0,4,4,1,0,0,0,0,0,1,0,0,Direct,1,1,0,0,,,,,117.5,1,0,0,Direct
28,6,1,140610_1226,4,1,0,0,4,Sender,4,1,1,1,3,50,35,2,3,2,1,35,5,4,35,3,1,180,123.333333333333,0,-99,5,200,0,0,340,57,2,7,4,3,32.391392,2,5.4000001,150,0,0,1,0,4,4,0,0,0,0,0,0,0,0,0,Baseline,1,1,0,,,,,,117.5,0,1,0,Baseline
28,6,2,140610_1226,4,1,0,0,4,Sender,4,1,1,1,3,50,35,2,3,5,4,35,5,4,35,3,1,180,123.333333333333,0,-99,5,200,0,0,340,57,2,7,4,3,32.391392,2,5.4000001,150,0,0,1,0,4,4,0,0,0,0,0,0,0,0,0,Baseline,1,1,0,,,,,,117.5,0,1,0,Baseline
29,1,1,140610_1226,5,2,0,0,5,Sender,1,4,2,2,1,180,35,3,1,4,1,35,4,1,0,0,0,0,0,0,-99,4,0,0,0,205,35,2,8,2,1,28.442928,2,4.4000001,20,0,0,.13333334,0,5,1,0,0,0,0,0,0,0,0,0,Baseline,1,1,0,,,0,7.5,,36,0,1,0,Baseline
29,1,2,140610_1226,5,2,0,0,5,Sender,1,4,2,2,1,180,35,3,1,1,2,35,4,1,0,0,0,0,0,0,-99,4,0,0,0,205,35,2,8,2,1,28.442928,2,4.4000001,20,0,0,.13333334,0,5,1,0,0,0,0,0,0,0,0,0,Baseline,1,1,0,,,0,7.5,,36,0,1,0,Baseline
29,2,1,140610_1226,5,2,0,0,5,Sender,1,4,2,2,5,180,35,3,1,4,3,70,1,3,0,0,0,0,0,0,-99,1,0,0,0,205,35,2,8,2,1,28.442928,2,4.4000001,20,0,0,.13333334,0,5,1,0,0,0,0,0,0,0,0,0,Baseline,1,1,0,0,,,,,36,0,1,0,Baseline
29,2,2,140610_1226,5,2,0,0,5,Sender,1,4,2,2,5,180,35,3,1,1,3,70,1,3,0,0,0,0,0,0,-99,1,0,0,0,205,35,2,8,2,1,28.442928,2,4.4000001,20,0,0,.13333334,0,5,1,0,0,0,0,0,0,0,0,0,Baseline,1,1,0,0,,,,,36,0,1,0,Baseline
29,3,1,140610_1226,5,2,0,0,5,Sender,1,4,2,1,1,180,35,2,3,5,4,35,6,1,70,1,3,0,0,0,-99,4,0,0,0,275,46,2,8,2,1,28.442928,2,4.4000001,20,0,0,.13333334,0,5,1,0,0,1,0,0,0,0,1,0,Group,1,1,0,,,,,,36,0,0,0,Group
29,3,2,140610_1226,5,2,0,0,5,Sender,1,4,2,1,1,180,35,2,3,6,1,35,6,1,70,1,3,0,0,0,-99,4,0,0,0,275,46,2,8,2,1,28.442928,2,4.4000001,20,0,0,.13333334,0,5,1,0,0,0,1,0,0,0,1,0,Group,1,1,0,,,,,,36,0,1,1,Baseline
29,4,1,140610_1226,5,2,0,0,5,Sender,1,4,2,2,6,180,35,3,1,5,1,30,2,1,30,2,1,0,0,0,-99,4,0,0,0,235,40,2,8,2,1,28.442928,2,4.4000001,20,0,0,.13333334,0,5,1,1,0,0,0,0,0,1,0,0,Direct,1,1,0,0,,,,,36,1,0,0,Direct
29,4,2,140610_1226,5,2,0,0,5,Sender,1,4,2,2,6,180,35,3,1,1,2,30,2,1,30,2,1,0,0,0,-99,4,0,0,0,235,40,2,8,2,1,28.442928,2,4.4000001,20,0,0,.13333334,0,5,1,0,1,0,0,0,0,1,0,0,Direct,1,1,0,0,,,,,36,1,1,1,Baseline
29,5,1,140610_1226,5,2,0,0,5,Sender,1,4,2,1,8,180,35,2,3,2,3,35,2,3,35,4,1,0,0,0,-99,1,0,0,0,240,40,2,8,2,1,28.442928,2,4.4000001,20,0,0,.13333334,0,5,1,0,0,0,0,1,0,0,0,1,In-Group,1,1,0,0,0,,,,36,1,0,0,In-Group
29,5,2,140610_1226,5,2,0,0,5,Sender,1,4,2,1,8,180,35,2,3,6,3,35,2,3,35,4,1,0,0,0,-99,1,0,0,0,240,40,2,8,2,1,28.442928,2,4.4000001,20,0,0,.13333334,0,5,1,0,0,0,0,0,1,0,0,1,In-Group,1,1,0,0,0,,,,36,1,1,1,Baseline
29,6,1,140610_1226,5,2,0,0,5,Sender,1,4,2,2,3,180,35,3,1,5,4,35,5,4,35,4,1,185,111.666666666667,0,-99,1,170,170,170,410,69,2,8,2,1,28.442928,2,4.4000001,20,0,0,.13333334,0,5,1,0,0,1,0,0,0,0,1,0,Group,1,1,0,0,,,,,36,0,0,0,Group
29,6,2,140610_1226,5,2,0,0,5,Sender,1,4,2,2,3,180,35,3,1,1,4,35,5,4,35,4,1,185,111.666666666667,0,-99,1,170,170,170,410,69,2,8,2,1,28.442928,2,4.4000001,20,0,0,.13333334,0,5,1,0,0,0,1,0,0,0,1,0,Group,1,1,0,0,,,,,36,0,1,1,Baseline
30,1,1,140610_1226,6,2,0,0,6,Sender,2,4,1,1,5,200,70,2,3,5,2,35,6,1,0,0,0,0,0,0,-99,4,0,0,0,235,40,2,8,3,1,30.838501,2,4.5999999,50,50,.33333334,.33333334,70,5,2,1,0,0,0,0,0,1,0,0,Direct,1,1,0,70,,30,7.5,,36,1,0,0,Direct
30,1,2,140610_1226,6,2,0,0,6,Sender,2,4,1,1,5,200,0,2,3,6,1,35,6,1,0,0,0,0,0,0,-99,4,0,0,0,235,40,2,8,3,1,30.838501,2,4.5999999,50,50,.33333334,.33333334,70,5,2,0,1,0,0,0,0,1,0,0,Direct,1,1,0,70,,30,7.5,,36,1,1,1,Baseline
30,2,1,140610_1226,6,2,0,0,6,Sender,2,4,1,1,8,200,50,2,3,2,4,30,2,2,0,0,0,0,0,0,-99,1,0,0,0,235,40,2,8,3,1,30.838501,2,4.5999999,50,50,.33333334,.33333334,30,5,2,0,0,0,0,1,0,0,0,1,In-Group,1,1,0,30,30,,,,36,1,0,0,In-Group
30,2,2,140610_1226,6,2,0,0,6,Sender,2,4,1,1,8,200,20,2,3,6,4,30,2,2,0,0,0,0,0,0,-99,1,0,0,0,235,40,2,8,3,1,30.838501,2,4.5999999,50,50,.33333334,.33333334,30,5,2,0,0,0,0,0,1,0,0,1,In-Group,1,1,0,30,30,,,,36,1,1,1,Baseline
30,3,1,140610_1226,6,2,0,0,6,Sender,2,4,1,2,3,200,35,3,1,5,3,35,5,3,0,0,0,0,0,0,-99,4,0,0,0,235,40,2,8,3,1,30.838501,2,4.5999999,50,50,.33333334,.33333334,0,5,2,0,0,1,0,0,0,0,1,0,Group,1,1,0,,,,,,36,0,0,0,Group
30,3,2,140610_1226,6,2,0,0,6,Sender,2,4,1,2,3,200,35,3,1,1,3,35,5,3,0,0,0,0,0,0,-99,4,0,0,0,235,40,2,8,3,1,30.838501,2,4.5999999,50,50,.33333334,.33333334,0,5,2,0,0,0,1,0,0,0,1,0,Group,1,1,0,,,,,,36,0,1,1,Baseline
30,4,1,140610_1226,6,2,0,0,6,Sender,2,4,1,1,8,200,35,2,3,4,1,35,4,1,35,5,3,0,0,0,-99,4,0,0,0,270,45,2,8,3,1,30.838501,2,4.5999999,50,50,.33333334,.33333334,0,5,2,0,0,0,0,0,0,0,0,0,Baseline,1,1,0,,,,,,36,0,1,0,Baseline
30,4,2,140610_1226,6,2,0,0,6,Sender,2,4,1,1,8,200,35,2,3,4,2,35,4,1,35,5,3,0,0,0,-99,4,0,0,0,270,45,2,8,3,1,30.838501,2,4.5999999,50,50,.33333334,.33333334,0,5,2,0,0,0,0,0,0,0,0,0,Baseline,1,1,0,,,,,,36,0,1,0,Baseline
30,5,1,140610_1226,6,2,0,0,6,Sender,2,4,1,2,5,200,35,3,1,4,4,30,2,2,35,5,3,0,0,0,-99,1,0,0,0,270,45,2,8,3,1,30.838501,2,4.5999999,50,50,.33333334,.33333334,0,5,2,0,0,0,0,0,0,0,0,0,Baseline,1,1,0,0,,,,,36,0,1,0,Baseline
30,5,2,140610_1226,6,2,0,0,6,Sender,2,4,1,2,5,200,35,3,1,1,4,30,2,2,35,5,3,0,0,0,-99,1,0,0,0,270,45,2,8,3,1,30.838501,2,4.5999999,50,50,.33333334,.33333334,0,5,2,0,0,0,0,0,0,0,0,0,Baseline,1,1,0,0,,,,,36,0,1,0,Baseline
30,6,1,140610_1226,6,2,0,0,6,Sender,2,4,1,1,1,200,35,2,3,5,3,35,6,2,35,5,3,182.166666666667,118.833333333333,0,-99,1,170,0,0,440,74,2,8,3,1,30.838501,2,4.5999999,50,50,.33333334,.33333334,0,5,2,0,0,1,0,0,0,0,1,0,Group,1,1,0,0,,,,,36,0,0,0,Group
30,6,2,140610_1226,6,2,0,0,6,Sender,2,4,1,1,1,200,35,2,3,6,2,35,6,2,35,5,3,182.166666666667,118.833333333333,0,-99,1,170,0,0,440,74,2,8,3,1,30.838501,2,4.5999999,50,50,.33333334,.33333334,0,5,2,0,0,0,1,0,0,0,1,0,Group,1,1,0,0,,,,,36,0,1,1,Baseline
31,1,1,140610_1226,7,2,0,0,7,Sender,3,3,2,2,6,200,70,3,1,5,3,0,5,3,0,0,0,0,0,0,-99,4,0,0,0,225,38,2,8,2,1,32.391392,2,4.5999999,0,0,,0,70,5,3,1,0,0,0,0,0,1,0,0,Direct,1,1,0,70,,0,7.5,,36,1,0,0,Direct
31,1,2,140610_1226,7,2,0,0,7,Sender,3,3,2,2,6,200,0,3,1,1,4,0,5,3,0,0,0,0,0,0,-99,4,0,0,0,225,38,2,8,2,1,32.391392,2,4.5999999,0,0,,0,70,5,3,0,1,0,0,0,0,1,0,0,Direct,1,1,0,70,,0,7.5,,36,1,1,1,Baseline
31,2,1,140610_1226,7,2,0,0,7,Sender,3,3,2,1,2,200,35,2,3,3,1,30,2,3,0,0,0,0,0,0,-99,1,0,0,0,225,38,2,8,2,1,32.391392,2,4.5999999,0,0,,0,0,5,3,0,0,0,0,0,0,0,0,0,Baseline,1,1,0,0,,,,,36,0,1,0,Baseline
31,2,2,140610_1226,7,2,0,0,7,Sender,3,3,2,1,2,200,35,2,3,6,3,30,2,3,0,0,0,0,0,0,-99,1,0,0,0,225,38,2,8,2,1,32.391392,2,4.5999999,0,0,,0,0,5,3,0,0,0,0,0,0,0,0,0,Baseline,1,1,0,0,,,,,36,0,1,0,Baseline
31,3,1,140610_1226,7,2,0,0,7,Sender,3,3,2,1,4,200,35,2,3,3,2,35,5,2,0,0,0,0,0,0,-99,4,0,0,0,225,38,2,8,2,1,32.391392,2,4.5999999,0,0,,0,0,5,3,0,0,0,1,0,0,0,1,0,Group,1,1,0,0,,,,,36,0,1,1,Baseline
31,3,2,140610_1226,7,2,0,0,7,Sender,3,3,2,1,4,200,35,2,3,5,2,35,5,2,0,0,0,0,0,0,-99,4,0,0,0,225,38,2,8,2,1,32.391392,2,4.5999999,0,0,,0,0,5,3,0,0,1,0,0,0,0,1,0,Group,1,1,0,0,,,,,36,0,0,0,Group
31,4,1,140610_1226,7,2,0,0,7,Sender,3,3,2,2,1,200,35,3,1,4,3,30,2,3,0,5,3,0,0,0,-99,4,0,0,0,225,38,2,8,2,1,32.391392,2,4.5999999,0,0,,0,0,5,3,0,0,0,0,0,0,0,0,0,Baseline,1,1,0,,,,,,36,0,1,0,Baseline
31,4,2,140610_1226,7,2,0,0,7,Sender,3,3,2,2,1,200,35,3,1,1,4,30,2,3,0,5,3,0,0,0,-99,4,0,0,0,225,38,2,8,2,1,32.391392,2,4.5999999,0,0,,0,0,5,3,0,0,0,0,0,0,0,0,0,Baseline,1,1,0,,,,,,36,0,1,0,Baseline
31,5,1,140610_1226,7,2,0,0,7,Sender,3,3,2,2,8,200,35,3,1,6,3,30,2,3,35,5,2,0,0,0,-99,1,0,0,0,260,44,2,8,2,1,32.391392,2,4.5999999,0,0,,0,0,5,3,0,0,0,0,0,1,0,0,1,In-Group,1,1,0,0,0,,,,36,1,1,1,Baseline
31,5,2,140610_1226,7,2,0,0,7,Sender,3,3,2,2,8,200,35,3,1,2,1,30,2,3,35,5,2,0,0,0,-99,1,0,0,0,260,44,2,8,2,1,32.391392,2,4.5999999,0,0,,0,0,5,3,0,0,0,0,1,0,0,0,1,In-Group,1,1,0,0,0,,,,36,1,0,0,In-Group
31,6,1,140610_1226,7,2,0,0,7,Sender,3,3,2,1,2,200,35,2,3,4,3,35,5,2,35,5,2,180,123.333333333333,0,-99,1,170,170,170,430,72,2,8,2,1,32.391392,2,4.5999999,0,0,,0,0,5,3,0,0,0,1,0,0,0,1,0,Group,1,1,0,,,,,,36,0,1,1,Baseline
31,6,2,140610_1226,7,2,0,0,7,Sender,3,3,2,1,2,200,35,2,3,5,2,35,5,2,35,5,2,180,123.333333333333,0,-99,1,170,170,170,430,72,2,8,2,1,32.391392,2,4.5999999,0,0,,0,0,5,3,0,0,1,0,0,0,0,1,0,Group,1,1,0,,,,,,36,0,0,0,Group
32,1,1,140610_1226,8,2,0,0,8,Sender,4,3,1,1,8,196,35,2,3,4,3,35,4,4,0,0,0,0,0,0,-99,4,0,0,0,211,36,2,8,1,1,32.391392,2,6,74,70,.31531531,.49333334,0,5,4,0,0,0,0,0,0,0,0,0,Baseline,1,1,0,,,0,7.5,,36,0,1,0,Baseline
32,1,2,140610_1226,8,2,0,0,8,Sender,4,3,1,1,8,196,35,2,3,4,4,35,4,4,0,0,0,0,0,0,-99,4,0,0,0,211,36,2,8,1,1,32.391392,2,6,74,70,.31531531,.49333334,0,5,4,0,0,0,0,0,0,0,0,0,Baseline,1,1,0,,,0,7.5,,36,0,1,0,Baseline
32,2,1,140610_1226,8,2,0,0,8,Sender,4,3,1,2,8,196,35,3,1,6,4,50,2,2,0,0,0,0,0,0,-99,1,0,0,0,211,36,2,8,1,1,32.391392,2,6,74,70,.31531531,.49333334,0,5,4,0,0,0,0,0,1,0,0,1,In-Group,1,1,0,0,0,,,,36,1,1,1,Baseline
32,2,2,140610_1226,8,2,0,0,8,Sender,4,3,1,2,8,196,35,3,1,2,2,50,2,2,0,0,0,0,0,0,-99,1,0,0,0,211,36,2,8,1,1,32.391392,2,6,74,70,.31531531,.49333334,0,5,4,0,0,0,0,1,0,0,0,1,In-Group,1,1,0,0,0,,,,36,1,0,0,In-Group
32,3,1,140610_1226,8,2,0,0,8,Sender,4,3,1,1,2,196,35,2,3,4,4,35,5,1,35,5,1,0,0,0,-99,4,0,0,0,246,41,2,8,1,1,32.391392,2,6,74,70,.31531531,.49333334,0,5,4,0,0,0,1,0,0,0,1,0,Group,1,1,0,,,,,,36,0,1,1,Baseline
32,3,2,140610_1226,8,2,0,0,8,Sender,4,3,1,1,2,196,35,2,3,5,1,35,5,1,35,5,1,0,0,0,-99,4,0,0,0,246,41,2,8,1,1,32.391392,2,6,74,70,.31531531,.49333334,0,5,4,0,0,1,0,0,0,0,1,0,Group,1,1,0,,,,,,36,0,0,0,Group
32,4,1,140610_1226,8,2,0,0,8,Sender,4,3,1,1,5,196,35,2,3,5,4,35,5,4,50,2,2,0,0,0,-99,4,0,0,0,261,44,2,8,1,1,32.391392,2,6,74,70,.31531531,.49333334,0,5,4,1,0,0,0,0,0,1,0,0,Direct,1,1,0,0,,,,,36,1,0,0,Direct
32,4,2,140610_1226,8,2,0,0,8,Sender,4,3,1,1,5,196,35,2,3,6,3,35,5,4,50,2,2,0,0,0,-99,4,0,0,0,261,44,2,8,1,1,32.391392,2,6,74,70,.31531531,.49333334,0,5,4,0,1,0,0,0,0,1,0,0,Direct,1,1,0,0,,,,,36,1,1,1,Baseline
32,5,1,140610_1226,8,2,0,0,8,Sender,4,3,1,1,2,196,35,2,3,3,2,35,3,2,35,5,1,0,0,0,-99,1,0,0,0,246,41,2,8,1,1,32.391392,2,6,74,70,.31531531,.49333334,0,5,4,0,0,0,0,0,0,0,0,0,Baseline,1,1,0,0,,,,,36,0,1,0,Baseline
32,5,2,140610_1226,8,2,0,0,8,Sender,4,3,1,1,2,196,35,2,3,6,4,35,3,2,35,5,1,0,0,0,-99,1,0,0,0,246,41,2,8,1,1,32.391392,2,6,74,70,.31531531,.49333334,0,5,4,0,0,0,0,0,0,0,0,0,Baseline,1,1,0,0,,,,,36,0,1,0,Baseline
32,6,1,140610_1226,8,2,0,0,8,Sender,4,3,1,1,4,196,35,2,3,3,1,35,5,1,35,4,4,180,123.333333333333,0,-99,1,170,0,0,416,70,2,8,1,1,32.391392,2,6,74,70,.31531531,.49333334,0,5,4,0,0,0,1,0,0,0,1,0,Group,1,1,0,0,,,,,36,0,1,1,Baseline
32,6,2,140610_1226,8,2,0,0,8,Sender,4,3,1,1,4,196,35,2,3,5,1,35,5,1,35,4,4,180,123.333333333333,0,-99,1,170,0,0,416,70,2,8,1,1,32.391392,2,6,74,70,.31531531,.49333334,0,5,4,0,0,1,0,0,0,0,1,0,Group,1,1,0,0,,,,,36,0,0,0,Group
33,1,1,140610_1226,9,3,0,0,9,Sender,1,6,2,1,7,190,50,2,3,3,2,35,5,1,35,5,1,0,0,0,-99,6,0,0,0,285,48,2,9,4,4,36.78492,2,4.8000002,20,10,.16666667,.13333334,30,6,1,0,0,0,0,1,0,0,0,1,In-Group,1,1,0,30,30,30,7.5,,102.5,1,0,0,In-Group
33,1,2,140610_1226,9,3,0,0,9,Sender,1,6,2,1,7,190,20,2,3,5,1,35,5,1,35,5,1,0,0,0,-99,6,0,0,0,285,48,2,9,4,4,36.78492,2,4.8000002,20,10,.16666667,.13333334,30,6,1,0,0,0,0,0,1,0,0,1,In-Group,1,1,0,30,30,30,7.5,,102.5,1,1,1,Baseline
33,2,1,140610_1226,9,3,0,0,9,Sender,1,6,2,2,2,190,35,3,1,6,3,35,2,3,35,2,3,0,0,0,-99,3,0,0,0,285,48,2,9,4,4,36.78492,2,4.8000002,20,10,.16666667,.13333334,0,6,1,0,0,1,0,0,0,0,1,0,Group,1,1,0,0,,,,,102.5,0,0,0,Group
33,2,2,140610_1226,9,3,0,0,9,Sender,1,6,2,2,2,190,35,3,1,2,3,35,2,3,35,2,3,0,0,0,-99,3,0,0,0,285,48,2,9,4,4,36.78492,2,4.8000002,20,10,.16666667,.13333334,0,6,1,0,0,0,1,0,0,0,1,0,Group,1,1,0,0,,,,,102.5,0,1,1,Baseline
33,3,1,140610_1226,9,3,0,0,9,Sender,1,6,2,3,7,190,35,1,2,1,1,30,3,1,0,0,0,0,0,0,-99,6,0,0,0,250,42,2,9,4,4,36.78492,2,4.8000002,20,10,.16666667,.13333334,0,6,1,0,0,0,0,0,0,0,0,0,Baseline,1,1,0,,,,,,102.5,0,1,0,Baseline
33,3,2,140610_1226,9,3,0,0,9,Sender,1,6,2,3,7,190,35,1,2,1,4,30,3,1,0,0,0,0,0,0,-99,6,0,0,0,250,42,2,9,4,4,36.78492,2,4.8000002,20,10,.16666667,.13333334,0,6,1,0,0,0,0,0,0,0,0,0,Baseline,1,1,0,,,,,,102.5,0,1,0,Baseline
33,4,1,140610_1226,9,3,0,0,9,Sender,1,6,2,2,4,190,35,3,1,6,2,30,3,1,30,3,1,0,0,0,-99,6,0,0,0,280,47,2,9,4,4,36.78492,2,4.8000002,20,10,.16666667,.13333334,0,6,1,0,0,1,0,0,0,0,1,0,Group,1,1,0,,,,,,102.5,0,0,0,Group
33,4,2,140610_1226,9,3,0,0,9,Sender,1,6,2,2,4,190,35,3,1,1,1,30,3,1,30,3,1,0,0,0,-99,6,0,0,0,280,47,2,9,4,4,36.78492,2,4.8000002,20,10,.16666667,.13333334,0,6,1,0,0,0,1,0,0,0,1,0,Group,1,1,0,,,,,,102.5,0,1,1,Baseline
33,5,1,140610_1226,9,3,0,0,9,Sender,1,6,2,1,6,190,25,2,3,5,3,35,5,3,35,2,3,0,0,0,-99,5,0,0,0,285,48,2,9,4,4,36.78492,2,4.8000002,20,10,.16666667,.13333334,20,6,1,0,1,0,0,0,0,1,0,0,Direct,1,1,0,20,,,,,102.5,1,1,1,Baseline
33,5,2,140610_1226,9,3,0,0,9,Sender,1,6,2,1,6,190,45,2,3,6,1,35,5,3,35,2,3,0,0,0,-99,5,0,0,0,285,48,2,9,4,4,36.78492,2,4.8000002,20,10,.16666667,.13333334,20,6,1,1,0,0,0,0,0,1,0,0,Direct,1,1,0,20,,,,,102.5,1,0,0,Direct
33,6,1,140610_1226,9,3,0,0,9,Sender,1,6,2,2,4,190,35,3,1,5,1,35,5,1,30,3,1,169,132.666666666667,0,-99,2,100,200,100,380,64,2,9,4,4,36.78492,2,4.8000002,20,10,.16666667,.13333334,0,6,1,0,0,0,0,0,0,0,0,0,Baseline,1,1,0,0,,,,,102.5,0,1,0,Baseline
33,6,2,140610_1226,9,3,0,0,9,Sender,1,6,2,2,4,190,35,3,1,2,4,35,5,1,30,3,1,169,132.666666666667,0,-99,2,100,200,100,380,64,2,9,4,4,36.78492,2,4.8000002,20,10,.16666667,.13333334,0,6,1,0,0,0,0,0,0,0,0,0,Baseline,1,1,0,0,,,,,102.5,0,1,0,Baseline
34,1,1,140610_1226,10,3,0,0,10,Sender,2,6,1,2,7,200,35,3,1,5,1,35,5,1,0,0,0,0,0,0,-99,6,0,0,0,260,44,2,9,4,4,40.629204,2,5.5999999,90,90,.33333334,.60000002,0,6,2,0,0,0,0,0,1,0,0,1,In-Group,1,1,0,0,0,0,7.5,,102.5,1,1,1,Baseline
34,1,2,140610_1226,10,3,0,0,10,Sender,2,6,1,2,7,200,35,3,1,3,1,35,5,1,0,0,0,0,0,0,-99,6,0,0,0,260,44,2,9,4,4,40.629204,2,5.5999999,90,90,.33333334,.60000002,0,6,2,0,0,0,0,1,0,0,0,1,In-Group,1,1,0,0,0,0,7.5,,102.5,1,0,0,In-Group
34,2,1,140610_1226,10,3,0,0,10,Sender,2,6,1,1,6,200,35,2,3,5,4,30,3,2,35,5,1,0,0,0,-99,3,0,0,0,295,50,2,9,4,4,40.629204,2,5.5999999,90,90,.33333334,.60000002,0,6,2,0,1,0,0,0,0,1,0,0,Direct,1,1,0,0,,,,,102.5,1,1,1,Baseline
34,2,2,140610_1226,10,3,0,0,10,Sender,2,6,1,1,6,200,35,2,3,6,2,30,3,2,35,5,1,0,0,0,-99,3,0,0,0,295,50,2,9,4,4,40.629204,2,5.5999999,90,90,.33333334,.60000002,0,6,2,1,0,0,0,0,0,1,0,0,Direct,1,1,0,0,,,,,102.5,1,0,0,Direct
34,3,1,140610_1226,10,3,0,0,10,Sender,2,6,1,2,4,200,35,3,1,5,2,35,5,2,35,5,2,0,0,0,-99,6,0,0,0,295,50,2,9,4,4,40.629204,2,5.5999999,90,90,.33333334,.60000002,0,6,2,0,0,0,0,0,0,0,0,0,Baseline,1,1,0,0,,,,,102.5,0,1,0,Baseline
34,3,2,140610_1226,10,3,0,0,10,Sender,2,6,1,2,4,200,35,3,1,2,3,35,5,2,35,5,2,0,0,0,-99,6,0,0,0,295,50,2,9,4,4,40.629204,2,5.5999999,90,90,.33333334,.60000002,0,6,2,0,0,0,0,0,0,0,0,0,Baseline,1,1,0,0,,,,,102.5,0,1,0,Baseline
34,4,1,140610_1226,10,3,0,0,10,Sender,2,6,1,1,3,200,35,2,3,0,0,0,0,0,0,0,0,0,0,0,-99,6,0,0,0,260,44,2,9,4,4,40.629204,2,5.5999999,90,90,.33333334,.60000002,0,6,2,0,0,0,1,0,0,0,1,0,Group,1,1,0,,,,,,102.5,0,1,1,Baseline
34,4,2,140610_1226,10,3,0,0,10,Sender,2,6,1,1,3,200,35,2,3,6,1,0,0,0,0,0,0,0,0,0,-99,6,0,0,0,260,44,2,9,4,4,40.629204,2,5.5999999,90,90,.33333334,.60000002,0,6,2,0,0,1,0,0,0,0,1,0,Group,1,1,0,,,,,,102.5,0,0,0,Group
34,5,1,140610_1226,10,3,0,0,10,Sender,2,6,1,2,2,200,35,3,1,6,4,30,3,2,35,5,2,0,0,0,-99,5,0,0,0,295,50,2,9,4,4,40.629204,2,5.5999999,90,90,.33333334,.60000002,0,6,2,0,0,1,0,0,0,0,1,0,Group,1,1,0,0,,,,,102.5,0,0,0,Group
34,5,2,140610_1226,10,3,0,0,10,Sender,2,6,1,2,2,200,35,3,1,2,4,30,3,2,35,5,2,0,0,0,-99,5,0,0,0,295,50,2,9,4,4,40.629204,2,5.5999999,90,90,.33333334,.60000002,0,6,2,0,0,0,1,0,0,0,1,0,Group,1,1,0,0,,,,,102.5,0,1,1,Baseline
34,6,1,140610_1226,10,3,0,0,10,Sender,2,6,1,3,7,200,35,1,2,1,2,30,3,2,30,3,2,165.833333333333,145.833333333333,0,-99,2,200,0,0,490,82,2,9,4,4,40.629204,2,5.5999999,90,90,.33333334,.60000002,0,6,2,0,0,0,0,0,0,0,0,0,Baseline,1,1,0,,,,,,102.5,0,1,0,Baseline
34,6,2,140610_1226,10,3,0,0,10,Sender,2,6,1,3,7,200,35,1,2,1,3,30,3,2,30,3,2,165.833333333333,145.833333333333,0,-99,2,200,0,0,490,82,2,9,4,4,40.629204,2,5.5999999,90,90,.33333334,.60000002,0,6,2,0,0,0,0,0,0,0,0,0,Baseline,1,1,0,,,,,,102.5,0,1,0,Baseline
35,1,1,140610_1226,11,3,0,0,11,Sender,3,5,2,2,4,275,35,3,1,6,4,35,6,4,0,0,0,0,0,0,-99,6,0,0,0,335,56,2,9,4,4,41.743954,2,6,150,225,.5,1,0,6,3,0,0,1,0,0,0,0,1,0,Group,1,1,0,0,,0,7.5,,102.5,0,0,0,Group
35,1,2,140610_1226,11,3,0,0,11,Sender,3,5,2,2,4,275,35,3,1,1,3,35,6,4,0,0,0,0,0,0,-99,6,0,0,0,335,56,2,9,4,4,41.743954,2,6,150,225,.5,1,0,6,3,0,0,0,1,0,0,0,1,0,Group,1,1,0,0,,0,7.5,,102.5,0,1,1,Baseline
35,2,1,140610_1226,11,3,0,0,11,Sender,3,5,2,1,1,275,35,2,3,4,1,30,3,3,0,0,0,0,0,0,-99,3,0,0,0,335,56,2,9,4,4,41.743954,2,6,150,225,.5,1,0,6,3,0,0,0,1,0,0,0,1,0,Group,1,1,0,,,,,,102.5,0,1,1,Baseline
35,2,2,140610_1226,11,3,0,0,11,Sender,3,5,2,1,1,275,35,2,3,6,1,30,3,3,0,0,0,0,0,0,-99,3,0,0,0,335,56,2,9,4,4,41.743954,2,6,150,225,.5,1,0,6,3,0,0,1,0,0,0,0,1,0,Group,1,1,0,,,,,,102.5,0,0,0,Group
35,3,1,140610_1226,11,3,0,0,11,Sender,3,5,2,2,6,275,35,3,1,4,2,40,4,2,0,0,0,0,0,0,-99,6,0,0,0,335,56,2,9,4,4,41.743954,2,6,150,225,.5,1,0,6,3,0,0,0,0,0,0,0,0,0,Baseline,1,1,0,,,,,,102.5,0,1,0,Baseline
35,3,2,140610_1226,11,3,0,0,11,Sender,3,5,2,2,6,275,35,3,1,1,2,40,4,2,0,0,0,0,0,0,-99,6,0,0,0,335,56,2,9,4,4,41.743954,2,6,150,225,.5,1,0,6,3,0,0,0,0,0,0,0,0,0,Baseline,1,1,0,,,,,,102.5,0,1,0,Baseline
35,4,1,140610_1226,11,3,0,0,11,Sender,3,5,2,1,7,275,35,2,3,3,4,35,3,4,35,3,4,0,0,0,-99,6,0,0,0,370,62,2,9,4,4,41.743954,2,6,150,225,.5,1,0,6,3,0,0,0,0,1,0,0,0,1,In-Group,1,1,0,0,0,,,,102.5,1,0,0,In-Group
35,4,2,140610_1226,11,3,0,0,11,Sender,3,5,2,1,7,275,35,2,3,5,3,35,3,4,35,3,4,0,0,0,-99,6,0,0,0,370,62,2,9,4,4,41.743954,2,6,150,225,.5,1,0,6,3,0,0,0,0,0,1,0,0,1,In-Group,1,1,0,0,0,,,,102.5,1,1,1,Baseline
35,5,1,140610_1226,11,3,0,0,11,Sender,3,5,2,2,3,275,35,3,1,4,1,30,3,3,35,6,4,0,0,0,-99,5,0,0,0,370,62,2,9,4,4,41.743954,2,6,150,225,.5,1,0,6,3,0,0,0,0,0,0,0,0,0,Baseline,1,1,0,0,,,,,102.5,0,1,0,Baseline
35,5,2,140610_1226,11,3,0,0,11,Sender,3,5,2,2,3,275,35,3,1,1,3,30,3,3,35,6,4,0,0,0,-99,5,0,0,0,370,62,2,9,4,4,41.743954,2,6,150,225,.5,1,0,6,3,0,0,0,0,0,0,0,0,0,Baseline,1,1,0,0,,,,,102.5,0,1,0,Baseline
35,6,1,140610_1226,11,3,0,0,11,Sender,3,5,2,1,5,275,35,2,3,4,2,70,6,3,35,3,4,164.333333333333,149.333333333333,0,-99,2,100,200,100,470,79,2,9,4,4,41.743954,2,6,150,225,.5,1,0,6,3,0,1,0,0,0,0,1,0,0,Direct,1,1,0,0,,,,,102.5,1,1,1,Baseline
35,6,2,140610_1226,11,3,0,0,11,Sender,3,5,2,1,5,275,35,2,3,6,3,70,6,3,35,3,4,164.333333333333,149.333333333333,0,-99,2,100,200,100,470,79,2,9,4,4,41.743954,2,6,150,225,.5,1,0,6,3,1,0,0,0,0,0,1,0,0,Direct,1,1,0,0,,,,,102.5,1,0,0,Direct
36,1,1,140610_1226,12,3,0,0,12,Sender,4,5,1,1,3,275,35,2,3,5,4,35,6,3,0,0,0,0,0,0,-99,6,0,0,0,345,58,2,9,5,4,37.023232,2,6,150,225,.5,1,0,6,4,0,0,0,1,0,0,0,1,0,Group,1,1,0,,,0,7.5,,102.5,0,1,1,Baseline
36,1,2,140610_1226,12,3,0,0,12,Sender,4,5,1,1,3,275,35,2,3,6,3,35,6,3,0,0,0,0,0,0,-99,6,0,0,0,345,58,2,9,5,4,37.023232,2,6,150,225,.5,1,0,6,4,0,0,1,0,0,0,0,1,0,Group,1,1,0,,,0,7.5,,102.5,0,0,0,Group
36,2,1,140610_1226,12,3,0,0,12,Sender,4,5,1,2,3,275,35,3,1,4,2,35,1,4,0,0,0,0,0,0,-99,3,0,0,0,345,58,2,9,5,4,37.023232,2,6,150,225,.5,1,0,6,4,0,0,0,0,0,0,0,0,0,Baseline,1,1,0,,,,,,102.5,0,1,0,Baseline
36,2,2,140610_1226,12,3,0,0,12,Sender,4,5,1,2,3,275,35,3,1,1,4,35,1,4,0,0,0,0,0,0,-99,3,0,0,0,345,58,2,9,5,4,37.023232,2,6,150,225,.5,1,0,6,4,0,0,0,0,0,0,0,0,0,Baseline,1,1,0,,,,,,102.5,0,1,0,Baseline
36,3,1,140610_1226,12,3,0,0,12,Sender,4,5,1,1,5,275,30,2,3,4,1,35,6,4,0,0,0,0,0,0,-99,6,0,0,0,345,58,2,9,5,4,37.023232,2,6,150,225,.5,1,10,6,4,0,1,0,0,0,0,1,0,0,Direct,1,1,0,10,,,,,102.5,1,1,1,Baseline
36,3,2,140610_1226,12,3,0,0,12,Sender,4,5,1,1,5,275,40,2,3,6,4,35,6,4,0,0,0,0,0,0,-99,6,0,0,0,345,58,2,9,5,4,37.023232,2,6,150,225,.5,1,10,6,4,1,0,0,0,0,0,1,0,0,Direct,1,1,0,10,,,,,102.5,1,0,0,Direct
36,4,1,140610_1226,12,3,0,0,12,Sender,4,5,1,2,7,275,35,3,1,5,3,30,3,4,35,6,4,0,0,0,-99,6,0,0,0,380,64,2,9,5,4,37.023232,2,6,150,225,.5,1,0,6,4,0,0,0,0,0,1,0,0,1,In-Group,1,1,0,0,0,,,,102.5,1,1,1,Baseline
36,4,2,140610_1226,12,3,0,0,12,Sender,4,5,1,2,7,275,35,3,1,3,3,30,3,4,35,6,4,0,0,0,-99,6,0,0,0,380,64,2,9,5,4,37.023232,2,6,150,225,.5,1,0,6,4,0,0,0,0,1,0,0,0,1,In-Group,1,1,0,0,0,,,,102.5,1,0,0,In-Group
36,5,1,140610_1226,12,3,0,0,12,Sender,4,5,1,1,1,275,35,2,3,4,2,35,4,2,30,3,4,0,0,0,-99,5,0,0,0,375,63,2,9,5,4,37.023232,2,6,150,225,.5,1,0,6,4,0,0,0,1,0,0,0,1,0,Group,1,1,0,0,,,,,102.5,0,1,1,Baseline
36,5,2,140610_1226,12,3,0,0,12,Sender,4,5,1,1,1,275,35,2,3,6,2,35,4,2,30,3,4,0,0,0,-99,5,0,0,0,375,63,2,9,5,4,37.023232,2,6,150,225,.5,1,0,6,4,0,0,1,0,0,0,0,1,0,Group,1,1,0,0,,,,,102.5,0,0,0,Group
36,6,1,140610_1226,12,3,0,0,12,Sender,4,5,1,2,6,275,35,3,1,4,1,20,4,1,35,1,4,174.166666666667,137.5,0,-99,2,200,0,0,580,97,2,9,5,4,37.023232,2,6,150,225,.5,1,0,6,4,0,0,0,0,0,0,0,0,0,Baseline,1,1,0,0,,,,,102.5,0,1,0,Baseline
36,6,2,140610_1226,12,3,0,0,12,Sender,4,5,1,2,6,275,35,3,1,1,1,20,4,1,35,1,4,174.166666666667,137.5,0,-99,2,200,0,0,580,97,2,9,5,4,37.023232,2,6,150,225,.5,1,0,6,4,0,0,0,0,0,0,0,0,0,Baseline,1,1,0,0,,,,,102.5,0,1,0,Baseline
37,1,1,140610_1226,13,4,0,0,1,Responder,1,8,2,3,1,225,35,1,2,1,2,30,4,1,0,0,0,0,0,0,-99,2,0,0,0,285,48,2,10,4,4,45.03624,2,5.1999998,150,225,.5,1,0,1,1,0,0,1,0,0,0,0,1,0,Group,0,1,1,0,,0,17,.2013889,,0,0,0,Group
37,1,2,140610_1226,13,4,0,0,1,Responder,1,8,2,3,1,225,35,1,2,2,1,30,4,1,0,0,0,0,0,0,-99,2,0,0,0,285,48,2,10,4,4,45.03624,2,5.1999998,150,225,.5,1,0,1,1,0,0,0,1,0,0,0,1,0,Group,0,1,1,0,,0,17,.2013889,,0,1,1,Baseline
37,2,1,140610_1226,13,4,0,0,1,Responder,1,8,2,2,1,225,20,3,1,6,1,35,3,3,0,0,0,0,0,0,-99,5,0,0,0,285,48,2,10,4,4,45.03624,2,5.1999998,150,225,.5,1,30,1,1,0,0,0,0,0,0,0,0,0,Baseline,0,1,1,,,,,.2013889,,0,1,0,Baseline
37,2,2,140610_1226,13,4,0,0,1,Responder,1,8,2,2,1,225,50,3,1,3,3,35,3,3,0,0,0,0,0,0,-99,5,0,0,0,285,48,2,10,4,4,45.03624,2,5.1999998,150,225,.5,1,30,1,1,0,0,0,0,0,0,0,0,0,Baseline,0,1,1,,,,,.2013889,,0,1,0,Baseline
37,3,1,140610_1226,13,4,0,0,1,Responder,1,8,2,2,5,225,40,3,1,6,4,35,6,4,35,3,3,0,0,0,-99,1,0,0,0,320,54,2,10,4,4,45.03624,2,5.1999998,150,225,.5,1,10,1,1,0,0,0,0,0,0,0,0,0,Baseline,0,1,1,20,,,,.2013889,,0,1,0,Baseline
37,3,2,140610_1226,13,4,0,0,1,Responder,1,8,2,2,5,225,30,3,1,3,4,35,6,4,35,3,3,0,0,0,-99,1,0,0,0,320,54,2,10,4,4,45.03624,2,5.1999998,150,225,.5,1,10,1,1,0,0,0,0,0,0,0,0,0,Baseline,0,1,1,20,,,,.2013889,,0,1,0,Baseline
37,4,1,140610_1226,13,4,0,0,1,Responder,1,8,2,2,8,225,35,3,1,4,2,30,4,1,30,4,1,0,0,0,-99,6,0,0,0,315,53,2,10,4,4,45.03624,2,5.1999998,150,225,.5,1,0,1,1,0,0,0,0,1,0,0,0,1,In-Group,0,1,1,0,0,,,.2013889,,1,0,0,In-Group
37,4,2,140610_1226,13,4,0,0,1,Responder,1,8,2,2,8,225,35,3,1,2,2,30,4,1,30,4,1,0,0,0,-99,6,0,0,0,315,53,2,10,4,4,45.03624,2,5.1999998,150,225,.5,1,0,1,1,0,0,0,0,0,1,0,0,1,In-Group,0,1,1,0,0,,,.2013889,,1,1,1,Baseline
37,5,1,140610_1226,13,4,0,0,1,Responder,1,8,2,3,3,225,35,1,2,1,3,35,3,3,30,4,1,0,0,0,-99,4,0,0,0,315,53,2,10,4,4,45.03624,2,5.1999998,150,225,.5,1,0,1,1,0,0,1,0,0,0,0,1,0,Group,0,1,1,,,,,.2013889,,0,0,0,Group
37,5,2,140610_1226,13,4,0,0,1,Responder,1,8,2,3,3,225,35,1,2,3,3,35,3,3,30,4,1,0,0,0,-99,4,0,0,0,315,53,2,10,4,4,45.03624,2,5.1999998,150,225,.5,1,0,1,1,0,0,0,1,0,0,0,1,0,Group,0,1,1,,,,,.2013889,,0,1,1,Baseline
37,6,1,140610_1226,13,4,0,0,1,Responder,1,8,2,3,6,225,50,1,2,1,1,30,4,1,35,3,3,156.666666666667,156.833333333333,0,-99,4,115,135,115,435,73,2,10,4,4,45.03624,2,5.1999998,150,225,.5,1,30,1,1,1,0,0,0,0,0,1,0,0,Direct,0,1,1,30,,,,.2013889,,1,0,0,Direct
37,6,2,140610_1226,13,4,0,0,1,Responder,1,8,2,3,6,225,20,1,2,3,4,30,4,1,35,3,3,156.666666666667,156.833333333333,0,-99,4,115,135,115,435,73,2,10,4,4,45.03624,2,5.1999998,150,225,.5,1,30,1,1,0,1,0,0,0,0,1,0,0,Direct,0,1,1,30,,,,.2013889,,1,1,1,Baseline
38,1,1,140610_1226,14,4,0,0,2,Responder,2,8,1,2,2,55,55,3,1,6,2,35,6,2,35,6,2,0,0,0,-99,2,0,0,0,150,25,2,10,4,4,33.186855,2,4.1999998,20,5,.083333336,.13333334,40,1,2,0,0,0,1,0,0,0,1,0,Group,0,1,1,,,0,17,.2013889,,0,1,1,Baseline
38,1,2,140610_1226,14,4,0,0,2,Responder,2,8,1,2,2,55,15,3,1,1,1,35,6,2,35,6,2,0,0,0,-99,2,0,0,0,150,25,2,10,4,4,33.186855,2,4.1999998,20,5,.083333336,.13333334,40,1,2,0,0,1,0,0,0,0,1,0,Group,0,1,1,,,0,17,.2013889,,0,0,0,Group
38,2,1,140610_1226,14,4,0,0,2,Responder,2,8,1,3,3,55,35,1,2,1,4,35,1,4,35,6,2,0,0,0,-99,5,0,0,0,150,25,2,10,4,4,33.186855,2,4.1999998,20,5,.083333336,.13333334,0,1,2,0,0,1,0,0,0,0,1,0,Group,0,1,1,20,,,,.2013889,,0,0,0,Group
38,2,2,140610_1226,14,4,0,0,2,Responder,2,8,1,3,3,55,35,1,2,3,4,35,1,4,35,6,2,0,0,0,-99,5,0,0,0,150,25,2,10,4,4,33.186855,2,4.1999998,20,5,.083333336,.13333334,0,1,2,0,0,0,1,0,0,0,1,0,Group,0,1,1,20,,,,.2013889,,0,1,1,Baseline
38,3,1,140610_1226,14,4,0,0,2,Responder,2,8,1,3,6,55,30,1,2,1,2,30,4,2,0,0,0,0,0,0,-99,1,0,0,0,115,20,2,10,4,4,33.186855,2,4.1999998,20,5,.083333336,.13333334,10,1,2,1,0,0,0,0,0,1,0,0,Direct,0,1,1,10,,,,.2013889,,1,0,0,Direct
38,3,2,140610_1226,14,4,0,0,2,Responder,2,8,1,3,6,55,40,1,2,3,3,30,4,2,0,0,0,0,0,0,-99,1,0,0,0,115,20,2,10,4,4,33.186855,2,4.1999998,20,5,.083333336,.13333334,10,1,2,0,1,0,0,0,0,1,0,0,Direct,0,1,1,10,,,,.2013889,,1,1,1,Baseline
38,4,1,140610_1226,14,4,0,0,2,Responder,2,8,1,3,8,55,35,1,2,2,2,35,4,1,30,4,2,0,0,0,-99,6,0,0,0,145,25,2,10,4,4,33.186855,2,4.1999998,20,5,.083333336,.13333334,0,1,2,0,0,0,0,0,1,0,0,1,In-Group,0,1,1,0,0,,,.2013889,,1,1,1,Baseline
38,4,2,140610_1226,14,4,0,0,2,Responder,2,8,1,3,8,55,35,1,2,4,1,35,4,1,30,4,2,0,0,0,-99,6,0,0,0,145,25,2,10,4,4,33.186855,2,4.1999998,20,5,.083333336,.13333334,0,1,2,0,0,0,0,1,0,0,0,1,In-Group,0,1,1,0,0,,,.2013889,,1,0,0,In-Group
38,5,1,140610_1226,14,4,0,0,2,Responder,2,8,1,2,1,55,35,3,1,6,2,30,4,2,35,6,2,0,0,0,-99,4,0,0,0,150,25,2,10,4,4,33.186855,2,4.1999998,20,5,.083333336,.13333334,0,1,2,0,0,0,0,0,0,0,0,0,Baseline,0,1,1,0,,,,.2013889,,0,1,0,Baseline
38,5,2,140610_1226,14,4,0,0,2,Responder,2,8,1,2,1,55,35,3,1,3,4,30,4,2,35,6,2,0,0,0,-99,4,0,0,0,150,25,2,10,4,4,33.186855,2,4.1999998,20,5,.083333336,.13333334,0,1,2,0,0,0,0,0,0,0,0,0,Baseline,0,1,1,0,,,,.2013889,,0,1,0,Baseline
38,6,1,140610_1226,14,4,0,0,2,Responder,2,8,1,2,5,55,35,3,1,6,3,0,6,3,30,4,2,179.166666666667,125.833333333333,0,-99,4,135,0,0,280,47,2,10,4,4,33.186855,2,4.1999998,20,5,.083333336,.13333334,0,1,2,0,0,0,0,0,0,0,0,0,Baseline,0,1,1,,,,,.2013889,,0,1,0,Baseline
